"trial_type","trial_index","time_elapsed","internal_node_id","value","metadata","success","timeout","failed_images","failed_audio","failed_video","browser_interaction","low_quality","rt","stimulus","response","button_pressed","island_rt","island_response","boat_rt","boat_response","boat","reward","island_key","island","boat_key","reward_probabilities","responses","num_errors","view_history"
"pavlovia","0","3","0.0-0.0","","","","","","","","","","","","","","","","","","","","","","","","","",""
"call-function","1","4","0.0-1.0","","{""task_version"":""sailing_part1_v1"",""task_condition"":""good"",""boats"":[""D"",""C"",""B"",""A""],""boats_demo"":[""E"",""G"",""F"",""H""],""islands"":[""A"",""B""],""subject_id"":""14050"",""age"":""13"",""gender"":""Male""}","","","","","","","","","","","","","","","","","","","","","","","",""
"preload","2","1631","0.0-2.0","","","true","false","[]","[]","[]","[{""event"":""fullscreenenter"",""trial"":3,""time"":3730}]","false","","","","","","","","","","","","","","","","",""
"fullscreen","3","4712","0.0-3.0","","","true","","","","","","","","","","","","","","","","","","","","","","",""
"audio-keyboard-response","4","6403","0.0-4.0-0.0","","","","","","","","","","850.4308390022676","audio/beep_loop.wav"," ","","","","","","","","","","","","","",""
"audio-test","5","8106","0.0-4.0-1.0","","","","","","","","","","null","audio/turtle.mp3","","3","","","","","","","","","","","","",""
"audio-test","6","10505","0.0-4.0-2.0","","","","","","","","","","null","audio/shark.mp3","","2","","","","","","","","","","","","",""
"sailing-instructions","7","47387","0.0-5.0-0.0-0.0","","","","","","","","","","","","","","null","null","null","null","null","null","","","","","","",""
"sailing-trial","8","50097","0.0-5.0-0.0-1.0-0.0","","","","false","","","","","","","","","","1602.1000000014901","","null","","null","null","arrowleft","0","null","null","","",""
"sailing-trial","9","52545","0.0-5.0-0.0-1.0-1.0","","","","false","","","","","","","","","","1316","","null","","null","null","arrowright","1","null","null","","",""
"sailing-trial","10","54513","0.0-5.0-0.0-1.0-2.0","","","","false","","","","","","","","","","835.6000000014901","","null","","null","null","arrowleft","0","null","null","","",""
"sailing-instructions","11","100163","0.0-5.0-0.0-2.0","","","","","","","","","","","","","","null","null","null","null","0","null","","","","","","",""
"sailing-trial","12","106248","0.0-5.0-0.0-3.0-0.0","","","","false","","","","","","","","","","null","","2257.300000000745","","2","1","null","null","arrowleft","[1,1,1,1]","","",""
"sailing-trial","13","109082","0.0-5.0-0.0-3.0-1.0","","","","false","","","","","","","","","","null","","703.8999999985099","","3","1","null","null","arrowright","[1,1,1,1]","","",""
"sailing-trial","14","112296","0.0-5.0-0.0-3.0-2.0","","","","false","","","","","","","","","","null","","813.7999999970198","","3","0","null","null","arrowright","[0,0,0,0]","","",""
"sailing-instructions","15","119740","0.0-5.0-0.0-4.0","","","","","","","","","","","","","","null","null","null","null","null","null","","","","","","",""
"sailing-comprehension","16","137124","0.0-5.0-0.0-5.0","","","","","","","","","","11987.60000000149","","","","","","","","","","","","","","[""true"",""true"",""false"",""true""]","0",""
"sailing-instructions","17","200916","0.0-6.0-0.0-0.0","","","","","","","","","","","","","","null","null","null","null","null","null","","","","","","",""
"sailing-comprehension","18","216180","0.0-6.0-0.0-1.0","","","","","","","","","","14348.699999999255","","","","","","","","","","","","","","[""true"",""false"",""true""]","0",""
"sailing-instructions","19","229643","0.0-7.0-0.0-0.0","","","","","","","","","","","","","","null","null","null","null","null","null","","","","","","",""
"sailing-trial","20","235162","0.0-7.0-0.0-1.0-0.0","","","","false","","","","","","","","","","null","","3339.39999999851","","0","0","null","null","arrowup","[0.2,0.8,0.2,0.8]","","",""
"sailing-trial","21","239312","0.0-7.0-0.0-1.0-1.0","","","","false","","","","","","","","","","null","","2428.5","","1","0","null","null","arrowup","[0.2,0.8,0.2,0.8]","","",""
"sailing-trial","22","241929","0.0-7.0-0.0-1.0-2.0","","","","false","","","","","","","","","","null","","942.8000000007451","","2","0","null","null","arrowup","[0.2,0.8,0.2,0.8]","","",""
"sailing-trial","23","244617","0.0-7.0-0.0-1.0-3.0","","","","false","","","","","","","","","","null","","973.1000000014901","","3","1","null","null","arrowup","[0.2,0.8,0.2,0.8]","","",""
"sailing-comprehension","24","257314","0.0-7.0-0.0-2.0","","","","","","","","","","4351.300000000745","","","","","","","","","","","","","","[""true""]","1",""
"sailing-instructions","25","270387","0.0-7.0-0.1-0.1","","","","","","","","","","","","","","null","null","null","null","null","null","","","","","","",""
"sailing-trial","26","273212","0.0-7.0-0.1-1.1-0.1","","","","false","","","","","","","","","","null","","699.9000000022352","","0","0","null","null","arrowup","[0.2,0.8,0.2,0.8]","","",""
"sailing-trial","27","274964","0.0-7.0-0.1-1.1-1.1","","","","false","","","","","","","","","","null","","68.30000000074506","","1","1","null","null","arrowup","[0.2,0.8,0.2,0.8]","","",""
"sailing-trial","28","276112","0.0-7.0-0.1-1.1-2.1","","","","false","","","","","","","","","","null","","100.10000000149012","","2","0","null","null","arrowup","[0.2,0.8,0.2,0.8]","","",""
"sailing-trial","29","277416","0.0-7.0-0.1-1.1-3.1","","","","false","","","","","","","","","","null","","142.39999999850988","","3","0","null","null","arrowup","[0.2,0.8,0.2,0.8]","","",""
"sailing-comprehension","30","281396","0.0-7.0-0.1-2.1","","","","","","","","","","3089.199999999255","","","","","","","","","","","","","","[""false""]","0",""
"sailing-instructions","31","291963","0.0-8.0-0.0-0.0","","","","","","","","","","","","","","null","null","null","null","null","null","","","","","","",""
"sailing-comprehension","32","295763","0.0-8.0-0.0-1.0","","","","","","","","","","2989.199999999255","","","","","","","","","","","","","","[""true""]","0",""
"sailing-instructions","33","322114","0.0-9.0-0.0-0.0","","","","","","","","","","","","","","null","null","null","null","null","null","","","","","","",""
"sailing-trial","34","327096","0.0-9.0-0.0-1.0-0.0","","","","false","","","","","","","","","","1271","","728.5","","2","0","arrowright","1","arrowleft","[0.2,0.8,0.2,0.8]","","",""
"sailing-trial","35","332565","0.0-9.0-0.0-1.0-1.0","","","","false","","","","","","","","","","733.3000000007451","","1636.4000000022352","","3","1","arrowright","1","arrowright","[0.2,0.8,0.2,0.8]","","",""
"sailing-trial","36","335963","0.0-9.0-0.0-1.0-2.0","","","","false","","","","","","","","","","null","","1345.6000000014901","","0","0","null","null","arrowup","[0.2,0.8,0.2,0.8]","","",""
"sailing-trial","37","340298","0.0-9.0-0.0-1.0-3.0","","","","false","","","","","","","","","","587.2999999970198","","839","","3","1","arrowright","1","arrowright","[0.2,0.8,0.2,0.8]","","",""
"sailing-trial","38","344182","0.0-9.0-0.0-1.0-4.0","","","","false","","","","","","","","","","null","","1997.5999999977648","","3","1","null","null","arrowup","[0.2,0.8,0.2,0.8]","","",""
"sailing-trial","39","348082","0.0-9.0-0.0-1.0-5.0","","","","false","","","","","","","","","","464.79999999701977","","827.3000000007451","","3","1","arrowright","1","arrowright","[0.2,0.8,0.2,0.8]","","",""
"sailing-instructions","40","372730","0.0-10.0","","","","","","","","","","","","","","null","null","null","null","null","null","","","","","","",""
"sailing-trial","41","378240","0.0-11.0-0.0","","","","false","","","","","","","","","","2038.199999999255","","283.3999999985099","","3","0","arrowright","1","arrowright","[0.85,0.15,0.325,0.675]","","",""
"sailing-trial","42","381017","0.0-11.0-1.0","","","","false","","","","","","","","","","null","","1278.5","","1","0","null","null","arrowup","[0.85,0.15,0.325,0.675]","","",""
"sailing-trial","43","385147","0.0-11.0-2.0","","","","false","","","","","","","","","","947.5999999977648","","238.20000000298023","","2","1","arrowright","1","arrowleft","[0.85,0.15,0.325,0.675]","","",""
"sailing-trial","44","388413","0.0-11.0-3.0","","","","false","","","","","","","","","","null","","690.1999999992549","","1","0","null","null","arrowup","[0.85,0.15,0.325,0.675]","","",""
"sailing-trial","45","391548","0.0-11.0-4.0","","","","false","","","","","","","","","","473.8999999985099","","65.19999999925494","","2","1","arrowright","1","arrowleft","[0.85,0.15,0.325,0.675]","","",""
"sailing-trial","46","394132","0.0-11.0-5.0","","","","false","","","","","","","","","","null","","728.9000000022352","","0","1","null","null","arrowup","[0.85,0.15,0.325,0.675]","","",""
"sailing-trial","47","398264","0.0-11.0-6.0","","","","false","","","","","","","","","","363.19999999925494","","161.69999999925494","","2","0","arrowright","1","arrowleft","[0.85,0.15,0.325,0.675]","","",""
"sailing-trial","48","401615","0.0-11.0-7.0","","","","false","","","","","","","","","","null","","1486.0999999977648","","3","1","null","null","arrowup","[0.85,0.15,0.325,0.675]","","",""
"sailing-trial","49","404395","0.0-11.0-8.0","","","","false","","","","","","","","","","669.5","","59","","3","0","arrowright","1","arrowright","[0.85,0.15,0.325,0.675]","","",""
"sailing-trial","50","409014","0.0-11.0-9.0","","","","false","","","","","","","","","","null","","1042.5","","1","1","null","null","arrowup","[0.85,0.15,0.325,0.675]","","",""
"sailing-trial","51","412400","0.0-11.0-10.0","","","","false","","","","","","","","","","414.80000000074506","","77.29999999701977","","1","0","arrowleft","0","arrowright","[0.85,0.15,0.325,0.675]","","",""
"sailing-trial","52","416300","0.0-11.0-11.0","","","","false","","","","","","","","","","null","","900.8999999985099","","1","0","null","null","arrowup","[0.85,0.15,0.325,0.675]","","",""
"sailing-trial","53","420431","0.0-11.0-12.0","","","","false","","","","","","","","","","409.4000000022352","","392.8999999985099","","0","1","arrowleft","0","arrowleft","[0.85,0.15,0.325,0.675]","","",""
"sailing-trial","54","424265","0.0-11.0-13.0","","","","false","","","","","","","","","","null","","599.3999999985099","","3","1","null","null","arrowup","[0.85,0.15,0.325,0.675]","","",""
"sailing-trial","55","428581","0.0-11.0-14.0","","","","false","","","","","","","","","","598.3000000007451","","707.1999999992549","","3","1","arrowright","1","arrowright","[0.85,0.15,0.325,0.675]","","",""
"sailing-trial","56","432176","0.0-11.0-15.0","","","","false","","","","","","","","","","null","","752.1999999992549","","1","0","null","null","arrowup","[0.85,0.15,0.325,0.675]","","",""
"sailing-trial","57","436547","0.0-11.0-16.0","","","","false","","","","","","","","","","560.1000000014901","","65.39999999850988","","0","1","arrowleft","0","arrowleft","[0.85,0.15,0.325,0.675]","","",""
"sailing-trial","58","440248","0.0-11.0-17.0","","","","false","","","","","","","","","","null","","1251.300000000745","","3","1","null","null","arrowup","[0.85,0.15,0.325,0.675]","","",""
"sailing-trial","59","444131","0.0-11.0-18.0","","","","false","","","","","","","","","","518.3999999985099","","415","","3","1","arrowright","1","arrowright","[0.85,0.15,0.325,0.675]","","",""
"sailing-trial","60","448682","0.0-11.0-19.0","","","","false","","","","","","","","","","null","","1043.8999999985099","","0","1","null","null","arrowup","[0.85,0.15,0.325,0.675]","","",""
"sailing-trial","61","451840","0.0-11.0-20.0","","","","false","","","","","","","","","","539.5","","5.599999997764826","","0","0","arrowleft","0","arrowleft","[0.675,0.325,0.15,0.85]","","",""
"sailing-trial","62","456516","0.0-11.0-21.0","","","","false","","","","","","","","","","null","","950.7999999970198","","3","1","null","null","arrowup","[0.675,0.325,0.15,0.85]","","",""
"sailing-trial","63","459931","0.0-11.0-22.0","","","","false","","","","","","","","","","434.69999999925494","","126.60000000149012","","3","1","arrowright","1","arrowright","[0.675,0.325,0.15,0.85]","","",""
"sailing-trial","64","463831","0.0-11.0-23.0","","","","false","","","","","","","","","","null","","890","","0","0","null","null","arrowup","[0.675,0.325,0.15,0.85]","","",""
"sailing-trial","65","466765","0.0-11.0-24.0","","","","false","","","","","","","","","","127","","118.09999999776483","","3","1","arrowright","1","arrowright","[0.675,0.325,0.15,0.85]","","",""
"sailing-trial","66","470548","0.0-11.0-25.0","","","","false","","","","","","","","","","null","","778.3999999985099","","2","0","null","null","arrowup","[0.675,0.325,0.15,0.85]","","",""
"sailing-trial","67","474465","0.0-11.0-26.0","","","","false","","","","","","","","","","266.6000000014901","","325.3999999985099","","3","1","arrowright","1","arrowright","[0.675,0.325,0.15,0.85]","","",""
"sailing-trial","68","478031","0.0-11.0-27.0","","","","false","","","","","","","","","","null","","1120.5","","0","1","null","null","arrowup","[0.675,0.325,0.15,0.85]","","",""
"sailing-trial","69","481500","0.0-11.0-28.0","","","","false","","","","","","","","","","592.6000000014901","","61.79999999701977","","3","1","arrowright","1","arrowright","[0.675,0.325,0.15,0.85]","","",""
"sailing-trial","70","485214","0.0-11.0-29.0","","","","false","","","","","","","","","","null","","715.3999999985099","","3","0","null","null","arrowup","[0.675,0.325,0.15,0.85]","","",""
"sailing-trial","71","489213","0.0-11.0-30.0","","","","false","","","","","","","","","","736.8999999985099","","120.39999999850988","","3","1","arrowright","1","arrowright","[0.675,0.325,0.15,0.85]","","",""
"sailing-trial","72","493066","0.0-11.0-31.0","","","","false","","","","","","","","","","null","","848.5","","0","0","null","null","arrowup","[0.675,0.325,0.15,0.85]","","",""
"sailing-trial","73","496997","0.0-11.0-32.0","","","","false","","","","","","","","","","467.3999999985099","","400.5","","3","1","arrowright","1","arrowright","[0.675,0.325,0.15,0.85]","","",""
"sailing-trial","74","500430","0.0-11.0-33.0","","","","false","","","","","","","","","","null","","1184.7999999970198","","0","1","null","null","arrowup","[0.675,0.325,0.15,0.85]","","",""
"sailing-trial","75","504815","0.0-11.0-34.0","","","","false","","","","","","","","","","624.4000000022352","","115.30000000074506","","3","1","arrowright","1","arrowright","[0.675,0.325,0.15,0.85]","","",""
"sailing-trial","76","508630","0.0-11.0-35.0","","","","false","","","","","","","","","","null","","858.4000000022352","","2","1","null","null","arrowup","[0.675,0.325,0.15,0.85]","","",""
"sailing-trial","77","513431","0.0-11.0-36.0","","","","false","","","","","","","","","","1240","","572.5999999977648","","3","1","arrowright","1","arrowright","[0.675,0.325,0.15,0.85]","","",""
"sailing-trial","78","517332","0.0-11.0-37.0","","","","false","","","","","","","","","","null","","903.5999999977648","","1","0","null","null","arrowup","[0.675,0.325,0.15,0.85]","","",""
"sailing-trial","79","520782","0.0-11.0-38.0","","","","false","","","","","","","","","","384.5999999977648","","360.8999999985099","","3","1","arrowright","1","arrowright","[0.675,0.325,0.15,0.85]","","",""
"sailing-trial","80","525532","0.0-11.0-39.0","","","","false","","","","","","","","","","null","","1736.5","","2","0","null","null","arrowup","[0.675,0.325,0.15,0.85]","","",""
"sailing-trial","81","529248","0.0-11.0-40.0","","","","false","","","","","","","","","","524.8999999985099","","291.0999999977648","","3","1","arrowright","1","arrowright","[0.675,0.325,0.15,0.85]","","",""
"sailing-trial","82","533480","0.0-11.0-41.0","","","","false","","","","","","","","","","null","","1238","","2","0","null","null","arrowup","[0.675,0.325,0.15,0.85]","","",""
"sailing-trial","83","537231","0.0-11.0-42.0","","","","false","","","","","","","","","","464.80000000074506","","376.19999999925494","","3","1","arrowright","1","arrowright","[0.85,0.15,0.325,0.675]","","",""
"sailing-trial","84","540899","0.0-11.0-43.0","","","","false","","","","","","","","","","null","","671","","1","0","null","null","arrowup","[0.85,0.15,0.325,0.675]","","",""
"sailing-trial","85","544431","0.0-11.0-44.0","","","","false","","","","","","","","","","426.80000000074506","","177.30000000074506","","3","1","arrowright","1","arrowright","[0.85,0.15,0.325,0.675]","","",""
"sailing-trial","86","546664","0.0-11.0-45.0","","","","false","","","","","","","","","","null","","602.0999999977648","","1","1","null","null","arrowup","[0.85,0.15,0.325,0.675]","","",""
"sailing-trial","87","550197","0.0-11.0-46.0","","","","false","","","","","","","","","","550.3999999985099","","4.800000000745058","","3","1","arrowright","1","arrowright","[0.85,0.15,0.325,0.675]","","",""
"sailing-trial","88","551952","0.0-11.0-47.0","","","","false","","","","","","","","","","null","","665","","0","0","null","null","arrowup","[0.85,0.15,0.325,0.675]","","",""
"sailing-trial","89","555582","0.0-11.0-48.0","","","","false","","","","","","","","","","622.8999999985099","","119.60000000149012","","3","1","arrowright","1","arrowright","[0.85,0.15,0.325,0.675]","","",""
"sailing-trial","90","557616","0.0-11.0-49.0","","","","false","","","","","","","","","","null","","486.1000000014901","","2","1","null","null","arrowup","[0.85,0.15,0.325,0.675]","","",""
"sailing-trial","91","561347","0.0-11.0-50.0","","","","false","","","","","","","","","","478.1000000014901","","321.79999999701977","","3","1","arrowright","1","arrowright","[0.85,0.15,0.325,0.675]","","",""
"sailing-trial","92","565480","0.0-11.0-51.0","","","","false","","","","","","","","","","null","","2442.699999999255","","1","0","null","null","arrowup","[0.85,0.15,0.325,0.675]","","",""
"sailing-trial","93","569131","0.0-11.0-52.0","","","","false","","","","","","","","","","461.6000000014901","","247","","3","1","arrowright","1","arrowright","[0.85,0.15,0.325,0.675]","","",""
"sailing-trial","94","572495","0.0-11.0-53.0","","","","false","","","","","","","","","","null","","979.5999999977648","","1","0","null","null","arrowup","[0.85,0.15,0.325,0.675]","","",""
"sailing-trial","95","576297","0.0-11.0-54.0","","","","false","","","","","","","","","","462.9000000022352","","327","","3","1","arrowright","1","arrowright","[0.85,0.15,0.325,0.675]","","",""
"sailing-trial","96","580567","0.0-11.0-55.0","","","","false","","","","","","","","","","null","","1270","","2","0","null","null","arrowup","[0.85,0.15,0.325,0.675]","","",""
"sailing-trial","97","584497","0.0-11.0-56.0","","","","false","","","","","","","","","","727.1999999992549","","90.80000000074506","","3","1","arrowright","1","arrowright","[0.85,0.15,0.325,0.675]","","",""
"sailing-trial","98","587679","0.0-11.0-57.0","","","","false","","","","","","","","","","null","","952.6999999992549","","0","1","null","null","arrowup","[0.85,0.15,0.325,0.675]","","",""
"sailing-trial","99","591231","0.0-11.0-58.0","","","","false","","","","","","","","","","551.6999999992549","","28.300000000745058","","3","1","arrowright","1","arrowright","[0.85,0.15,0.325,0.675]","","",""
"sailing-trial","100","594664","0.0-11.0-59.0","","","","false","","","","","","","","","","null","","1215.300000000745","","1","1","null","null","arrowup","[0.85,0.15,0.325,0.675]","","",""
"sailing-trial","101","598048","0.0-11.0-60.0","","","","false","","","","","","","","","","574.3000000007451","","132.59999999776483","","3","1","arrowright","1","arrowright","[0.675,0.325,0.15,0.85]","","",""
"sailing-trial","102","600447","0.0-11.0-61.0","","","","false","","","","","","","","","","null","","781.2999999970198","","2","0","null","null","arrowup","[0.675,0.325,0.15,0.85]","","",""
"sailing-trial","103","603289","0.0-11.0-62.0","","","","false","","","","","","","","","","383.5","","93","","3","0","arrowright","1","arrowright","[0.675,0.325,0.15,0.85]","","",""
"sailing-trial","104","606215","0.0-11.0-63.0","","","","false","","","","","","","","","","null","","944.8999999985099","","3","1","null","null","arrowup","[0.675,0.325,0.15,0.85]","","",""
"sailing-trial","105","609581","0.0-11.0-64.0","","","","false","","","","","","","","","","472.6000000014901","","138.80000000074506","","3","1","arrowright","1","arrowright","[0.675,0.325,0.15,0.85]","","",""
"sailing-trial","106","612431","0.0-11.0-65.0","","","","false","","","","","","","","","","null","","905.7999999970198","","0","1","null","null","arrowup","[0.675,0.325,0.15,0.85]","","",""
"sailing-trial","107","616080","0.0-11.0-66.0","","","","false","","","","","","","","","","439.5","","364.0999999977648","","3","1","arrowright","1","arrowright","[0.675,0.325,0.15,0.85]","","",""
"sailing-trial","108","618532","0.0-11.0-67.0","","","","false","","","","","","","","","","null","","670.5","","3","1","null","null","arrowup","[0.675,0.325,0.15,0.85]","","",""
"sailing-trial","109","622098","0.0-11.0-68.0","","","","false","","","","","","","","","","610.9000000022352","","96.80000000074506","","3","1","arrowright","1","arrowright","[0.675,0.325,0.15,0.85]","","",""
"sailing-trial","110","625383","0.0-11.0-69.0","","","","false","","","","","","","","","","null","","1436.3999999985099","","3","1","null","null","arrowup","[0.675,0.325,0.15,0.85]","","",""
"sailing-trial","111","629215","0.0-11.0-70.0","","","","false","","","","","","","","","","647.6999999992549","","244.79999999701977","","3","1","arrowright","1","arrowright","[0.675,0.325,0.15,0.85]","","",""
"sailing-trial","112","632136","0.0-11.0-71.0","","","","false","","","","","","","","","","null","","1344.1000000014901","","0","0","null","null","arrowup","[0.675,0.325,0.15,0.85]","","",""
"sailing-trial","113","635531","0.0-11.0-72.0","","","","false","","","","","","","","","","518.5999999977648","","67.09999999776483","","3","1","arrowright","1","arrowright","[0.675,0.325,0.15,0.85]","","",""
"sailing-trial","114","638615","0.0-11.0-73.0","","","","false","","","","","","","","","","null","","906.5999999977648","","2","1","null","null","arrowup","[0.675,0.325,0.15,0.85]","","",""
"sailing-trial","115","641466","0.0-11.0-74.0","","","","false","","","","","","","","","","128.80000000074506","","110.59999999776483","","3","1","arrowright","1","arrowright","[0.675,0.325,0.15,0.85]","","",""
"sailing-trial","116","643369","0.0-11.0-75.0","","","","false","","","","","","","","","","null","","772.3999999985099","","2","0","null","null","arrowup","[0.675,0.325,0.15,0.85]","","",""
"sailing-trial","117","647132","0.0-11.0-76.0","","","","false","","","","","","","","","","341.19999999925494","","368.5999999977648","","3","1","arrowright","1","arrowright","[0.675,0.325,0.15,0.85]","","",""
"sailing-trial","118","649121","0.0-11.0-77.0","","","","false","","","","","","","","","","null","","641.8000000007451","","2","0","null","null","arrowup","[0.675,0.325,0.15,0.85]","","",""
"sailing-trial","119","652231","0.0-11.0-78.0","","","","false","","","","","","","","","","295.69999999925494","","84.60000000149012","","3","1","arrowright","1","arrowright","[0.85,0.15,0.325,0.675]","","",""
"sailing-trial","120","655104","0.0-11.0-79.0","","","","false","","","","","","","","","","null","","1150.1000000014901","","2","0","null","null","arrowup","[0.85,0.15,0.325,0.675]","","",""
"sailing-trial","121","658465","0.0-11.0-80.0","","","","false","","","","","","","","","","288.20000000298023","","135.10000000149012","","3","1","arrowright","1","arrowright","[0.85,0.15,0.325,0.675]","","",""
"sailing-trial","122","662127","0.0-11.0-81.0","","","","false","","","","","","","","","","null","","1029.5","","1","0","null","null","arrowup","[0.85,0.15,0.325,0.675]","","",""
"sailing-trial","123","665016","0.0-11.0-82.0","","","","false","","","","","","","","","","440","","48.399999998509884","","3","0","arrowright","1","arrowright","[0.85,0.15,0.325,0.675]","","",""
"sailing-trial","124","667631","0.0-11.0-83.0","","","","false","","","","","","","","","","null","","800.1000000014901","","0","1","null","null","arrowup","[0.85,0.15,0.325,0.675]","","",""
"sailing-trial","125","671792","0.0-11.0-84.0","","","","false","","","","","","","","","","536.3000000007451","","287.80000000074506","","3","0","arrowright","1","arrowright","[0.85,0.15,0.325,0.675]","","",""
"sailing-trial","126","674847","0.0-11.0-85.0","","","","false","","","","","","","","","","null","","1093.699999999255","","3","1","null","null","arrowup","[0.85,0.15,0.325,0.675]","","",""
"sailing-trial","127","678264","0.0-11.0-86.0","","","","false","","","","","","","","","","375.20000000298023","","370.9000000022352","","0","1","arrowleft","0","arrowleft","[0.85,0.15,0.325,0.675]","","",""
"sailing-trial","128","680888","0.0-11.0-87.0","","","","false","","","","","","","","","","null","","886.0999999977648","","1","0","null","null","arrowup","[0.85,0.15,0.325,0.675]","","",""
"sailing-trial","129","684433","0.0-11.0-88.0","","","","false","","","","","","","","","","399.1000000014901","","225.80000000074506","","0","1","arrowleft","0","arrowleft","[0.85,0.15,0.325,0.675]","","",""
"sailing-trial","130","687282","0.0-11.0-89.0","","","","false","","","","","","","","","","null","","773.1999999992549","","0","1","null","null","arrowup","[0.85,0.15,0.325,0.675]","","",""
"sailing-trial","131","691048","0.0-11.0-90.0","","","","false","","","","","","","","","","539.6999999992549","","181.39999999850988","","0","1","arrowleft","0","arrowleft","[0.85,0.15,0.325,0.675]","","",""
"sailing-trial","132","693631","0.0-11.0-91.0","","","","false","","","","","","","","","","null","","1062.1000000014901","","0","1","null","null","arrowup","[0.85,0.15,0.325,0.675]","","",""
"sailing-trial","133","697300","0.0-11.0-92.0","","","","false","","","","","","","","","","591.8999999985099","","476.80000000074506","","0","1","arrowleft","0","arrowleft","[0.85,0.15,0.325,0.675]","","",""
"sailing-trial","134","701316","0.0-11.0-93.0","","","","false","","","","","","","","","","null","","2170.800000000745","","3","1","null","null","arrowup","[0.85,0.15,0.325,0.675]","","",""
"sailing-trial","135","704864","0.0-11.0-94.0","","","","false","","","","","","","","","","561.8000000007451","","275.20000000298023","","0","1","arrowleft","0","arrowleft","[0.85,0.15,0.325,0.675]","","",""
"sailing-trial","136","707617","0.0-11.0-95.0","","","","false","","","","","","","","","","null","","990.8999999985099","","0","0","null","null","arrowup","[0.85,0.15,0.325,0.675]","","",""
"sailing-trial","137","710749","0.0-11.0-96.0","","","","false","","","","","","","","","","291.6000000014901","","105.69999999925494","","0","1","arrowleft","0","arrowleft","[0.85,0.15,0.325,0.675]","","",""
"sailing-trial","138","714533","0.0-11.0-97.0","","","","false","","","","","","","","","","null","","787.7999999970198","","2","0","null","null","arrowup","[0.85,0.15,0.325,0.675]","","",""
"sailing-trial","139","717665","0.0-11.0-98.0","","","","false","","","","","","","","","","224.79999999701977","","120.19999999925494","","0","1","arrowleft","0","arrowleft","[0.85,0.15,0.325,0.675]","","",""
"sailing-trial","140","719792","0.0-11.0-99.0","","","","false","","","","","","","","","","null","","685.5","","1","0","null","null","arrowup","[0.85,0.15,0.325,0.675]","","",""
"sailing-trial","141","722683","0.0-11.0-100.0","","","","false","","","","","","","","","","183.19999999925494","","158.39999999850988","","0","1","arrowleft","0","arrowleft","[0.675,0.325,0.15,0.85]","","",""
"sailing-trial","142","724272","0.0-11.0-101.0","","","","false","","","","","","","","","","null","","419.0999999977648","","2","0","null","null","arrowup","[0.675,0.325,0.15,0.85]","","",""
"sailing-trial","143","726931","0.0-11.0-102.0","","","","false","","","","","","","","","","64.19999999925494","","39.69999999925494","","0","1","arrowleft","0","arrowleft","[0.675,0.325,0.15,0.85]","","",""
"sailing-trial","144","728337","0.0-11.0-103.0","","","","false","","","","","","","","","","null","","220.40000000223517","","2","0","null","null","arrowup","[0.675,0.325,0.15,0.85]","","",""
"sailing-trial","145","731098","0.0-11.0-104.0","","","","false","","","","","","","","","","159","","25.199999999254942","","0","1","arrowleft","0","arrowleft","[0.675,0.325,0.15,0.85]","","",""
"sailing-trial","146","732169","0.0-11.0-105.0","","","","false","","","","","","","","","","null","","36.30000000074506","","2","0","null","null","arrowup","[0.675,0.325,0.15,0.85]","","",""
"sailing-trial","147","735331","0.0-11.0-106.0","","","","false","","","","","","","","","","77.69999999925494","","330.9000000022352","","0","1","arrowleft","0","arrowleft","[0.675,0.325,0.15,0.85]","","",""
"sailing-trial","148","736473","0.0-11.0-107.0","","","","false","","","","","","","","","","null","","90.60000000149012","","2","0","null","null","arrowup","[0.675,0.325,0.15,0.85]","","",""
"sailing-trial","149","739465","0.0-11.0-108.0","","","","false","","","","","","","","","","118.80000000074506","","167.30000000074506","","0","1","arrowleft","0","arrowleft","[0.675,0.325,0.15,0.85]","","",""
"sailing-trial","150","740497","0.0-11.0-109.0","","","","false","","","","","","","","","","null","","0.19999999925494194","","3","0","null","null","arrowup","[0.675,0.325,0.15,0.85]","","",""
"sailing-trial","151","743583","0.0-11.0-110.0","","","","false","","","","","","","","","","126","","165.5","","0","1","arrowleft","0","arrowleft","[0.675,0.325,0.15,0.85]","","",""
"sailing-trial","152","745432","0.0-11.0-111.0","","","","false","","","","","","","","","","null","","106.80000000074506","","3","1","null","null","arrowup","[0.675,0.325,0.15,0.85]","","",""
"sailing-trial","153","748248","0.0-11.0-112.0","","","","false","","","","","","","","","","79.89999999850988","","23.800000000745058","","0","1","arrowleft","0","arrowleft","[0.675,0.325,0.15,0.85]","","",""
"sailing-trial","154","749831","0.0-11.0-113.0","","","","false","","","","","","","","","","null","","31.199999999254942","","3","1","null","null","arrowup","[0.675,0.325,0.15,0.85]","","",""
"sailing-trial","155","752815","0.0-11.0-114.0","","","","false","","","","","","","","","","8.199999999254942","","259.69999999925494","","0","1","arrowleft","0","arrowleft","[0.675,0.325,0.15,0.85]","","",""
"sailing-trial","156","753993","0.0-11.0-115.0","","","","false","","","","","","","","","","null","","87.10000000149012","","0","0","null","null","arrowup","[0.675,0.325,0.15,0.85]","","",""
"sailing-trial","157","757032","0.0-11.0-116.0","","","","false","","","","","","","","","","71.30000000074506","","395.5999999977648","","0","1","arrowleft","0","arrowleft","[0.15,0.85,0.675,0.325]","","",""
"sailing-trial","158","758672","0.0-11.0-117.0","","","","false","","","","","","","","","","null","","486.1000000014901","","0","0","null","null","arrowup","[0.15,0.85,0.675,0.325]","","",""
"sailing-trial","159","760969","0.0-11.0-118.0","","","","false","","","","","","","","","","151.60000000149012","","69.30000000074506","","0","0","arrowleft","0","arrowleft","[0.15,0.85,0.675,0.325]","","",""
"sailing-trial","160","763361","0.0-11.0-119.0","","","","false","","","","","","","","","","null","","1245.3999999985099","","0","0","null","null","arrowup","[0.15,0.85,0.675,0.325]","","",""
"sailing-trial","161","767440","0.0-11.0-120.0","","","","false","","","","","","","","","","926.3000000007451","","51","","3","0","arrowright","1","arrowright","[0.15,0.85,0.675,0.325]","","",""
"sailing-trial","162","769857","0.0-11.0-121.0","","","","false","","","","","","","","","","null","","1095.5","","1","0","null","null","arrowup","[0.15,0.85,0.675,0.325]","","",""
"sailing-trial","163","774498","0.0-11.0-122.0","","","","false","","","","","","","","","","1590.1000000014901","","84.39999999850988","","2","1","arrowright","1","arrowleft","[0.15,0.85,0.675,0.325]","","",""
"sailing-trial","164","777675","0.0-11.0-123.0","","","","false","","","","","","","","","","null","","1696.2999999970198","","2","0","null","null","arrowup","[0.15,0.85,0.675,0.325]","","",""
"sailing-trial","165","780337","0.0-11.0-124.0","","","","false","","","","","","","","","","492.0999999977648","","47.30000000074506","","2","0","arrowright","1","arrowleft","[0.15,0.85,0.675,0.325]","","",""
"sailing-trial","166","783348","0.0-11.0-125.0","","","","false","","","","","","","","","","null","","1077.6000000014901","","1","1","null","null","arrowup","[0.15,0.85,0.675,0.325]","","",""
"sailing-trial","167","787580","0.0-11.0-126.0","","","","false","","","","","","","","","","1113.2000000029802","","19","","1","1","arrowleft","0","arrowright","[0.15,0.85,0.675,0.325]","","",""
"sailing-trial","168","790130","0.0-11.0-127.0","","","","false","","","","","","","","","","null","","952.3999999985099","","0","1","null","null","arrowup","[0.15,0.85,0.675,0.325]","","",""
"sailing-trial","169","793014","0.0-11.0-128.0","","","","false","","","","","","","","","","44.30000000074506","","125.10000000149012","","1","1","arrowleft","0","arrowright","[0.15,0.85,0.675,0.325]","","",""
"sailing-trial","170","795231","0.0-11.0-129.0","","","","false","","","","","","","","","","null","","496.5","","0","0","null","null","arrowup","[0.15,0.85,0.675,0.325]","","",""
"sailing-trial","171","797808","0.0-11.0-130.0","","","","false","","","","","","","","","","327.30000000074506","","56.100000001490116","","1","0","arrowleft","0","arrowright","[0.15,0.85,0.675,0.325]","","",""
"sailing-trial","172","799781","0.0-11.0-131.0","","","","false","","","","","","","","","","null","","310.9000000022352","","0","1","null","null","arrowup","[0.15,0.85,0.675,0.325]","","",""
"sailing-trial","173","802630","0.0-11.0-132.0","","","","false","","","","","","","","","","106.10000000149012","","26.900000002235174","","1","1","arrowleft","0","arrowright","[0.15,0.85,0.675,0.325]","","",""
"sailing-trial","174","803840","0.0-11.0-133.0","","","","false","","","","","","","","","","null","","176","","3","0","null","null","arrowup","[0.15,0.85,0.675,0.325]","","",""
"sailing-trial","175","810048","0.0-11.0-134.0","","","","false","","","","","","","","","","902.2000000029802","","1022.8999999985099","","1","1","arrowleft","0","arrowright","[0.15,0.85,0.675,0.325]","","",""
"sailing-trial","176","813264","0.0-11.0-135.0","","","","false","","","","","","","","","","null","","1189","","1","1","null","null","arrowup","[0.15,0.85,0.675,0.325]","","",""
"sailing-trial","177","816575","0.0-11.0-136.0","","","","false","","","","","","","","","","414.19999999925494","","42.600000001490116","","1","0","arrowleft","0","arrowright","[0.15,0.85,0.675,0.325]","","",""
"sailing-trial","178","818364","0.0-11.0-137.0","","","","false","","","","","","","","","","null","","170","","2","1","null","null","arrowup","[0.15,0.85,0.675,0.325]","","",""
"sailing-trial","179","821632","0.0-11.0-138.0","","","","false","","","","","","","","","","546.3999999985099","","73.70000000298023","","1","1","arrowleft","0","arrowright","[0.15,0.85,0.675,0.325]","","",""
"sailing-trial","180","822953","0.0-11.0-139.0","","","","false","","","","","","","","","","null","","125.39999999850988","","0","0","null","null","arrowup","[0.15,0.85,0.675,0.325]","","",""
"sailing-trial","181","825998","0.0-11.0-140.0","","","","false","","","","","","","","","","261.69999999925494","","20.5","","1","1","arrowleft","0","arrowright","[0.325,0.675,0.85,0.15]","","",""
"sailing-trial","182","827632","0.0-11.0-141.0","","","","false","","","","","","","","","","null","","8.300000000745058","","3","0","null","null","arrowup","[0.325,0.675,0.85,0.15]","","",""
"sailing-trial","183","830347","0.0-11.0-142.0","","","","false","","","","","","","","","","125.90000000223517","","47.400000002235174","","1","1","arrowleft","0","arrowright","[0.325,0.675,0.85,0.15]","","",""
"sailing-trial","184","833498","0.0-11.0-143.0","","","","false","","","","","","","","","","null","","588.6999999992549","","2","1","null","null","arrowup","[0.325,0.675,0.85,0.15]","","",""
"sailing-trial","185","836112","0.0-11.0-144.0","","","","false","","","","","","","","","","412.19999999925494","","145.10000000149012","","1","0","arrowleft","0","arrowright","[0.325,0.675,0.85,0.15]","","",""
"sailing-trial","186","838768","0.0-11.0-145.0","","","","false","","","","","","","","","","null","","1142.2000000029802","","0","0","null","null","arrowup","[0.325,0.675,0.85,0.15]","","",""
"sailing-trial","187","841949","0.0-11.0-146.0","","","","false","","","","","","","","","","494.1000000014901","","108","","2","1","arrowright","1","arrowleft","[0.325,0.675,0.85,0.15]","","",""
"sailing-trial","188","845297","0.0-11.0-147.0","","","","false","","","","","","","","","","null","","936.2999999970198","","1","1","null","null","arrowup","[0.325,0.675,0.85,0.15]","","",""
"sailing-trial","189","848365","0.0-11.0-148.0","","","","false","","","","","","","","","","246.10000000149012","","7.900000002235174","","2","1","arrowright","1","arrowleft","[0.325,0.675,0.85,0.15]","","",""
"sailing-trial","190","849633","0.0-11.0-149.0","","","","false","","","","","","","","","","null","","34.900000002235174","","3","0","null","null","arrowup","[0.325,0.675,0.85,0.15]","","",""
"sailing-trial","191","853148","0.0-11.0-150.0","","","","false","","","","","","","","","","141.70000000298023","","302.6000000014901","","2","1","arrowright","1","arrowleft","[0.325,0.675,0.85,0.15]","","",""
"sailing-trial","192","856315","0.0-11.0-151.0","","","","false","","","","","","","","","","null","","147.40000000223517","","0","0","null","null","arrowup","[0.325,0.675,0.85,0.15]","","",""
"sailing-trial","193","859397","0.0-11.0-152.0","","","","false","","","","","","","","","","318.5999999977648","","213.10000000149012","","2","1","arrowright","1","arrowleft","[0.325,0.675,0.85,0.15]","","",""
"sailing-trial","194","861598","0.0-11.0-153.0","","","","false","","","","","","","","","","null","","176.89999999850988","","2","1","null","null","arrowup","[0.325,0.675,0.85,0.15]","","",""
"sailing-trial","195","864966","0.0-11.0-154.0","","","","false","","","","","","","","","","249.09999999776483","","533.9000000022352","","2","1","arrowright","1","arrowleft","[0.325,0.675,0.85,0.15]","","",""
"sailing-trial","196","866732","0.0-11.0-155.0","","","","false","","","","","","","","","","null","","133.30000000074506","","1","1","null","null","arrowup","[0.325,0.675,0.85,0.15]","","",""
"sailing-trial","197","869119","0.0-11.0-156.0","","","","false","","","","","","","","","","155.20000000298023","","49.79999999701977","","2","0","arrowright","1","arrowleft","[0.325,0.675,0.85,0.15]","","",""
"sailing-trial","198","872465","0.0-11.0-157.0","","","","false","","","","","","","","","","null","","1159.699999999255","","2","1","null","null","arrowup","[0.325,0.675,0.85,0.15]","","",""
"sailing-trial","199","875515","0.0-11.0-158.0","","","","false","","","","","","","","","","166","","77.10000000149012","","2","1","arrowright","1","arrowleft","[0.325,0.675,0.85,0.15]","","",""
"sailing-trial","200","877216","0.0-11.0-159.0","","","","false","","","","","","","","","","null","","659.8999999985099","","3","0","null","null","arrowup","[0.325,0.675,0.85,0.15]","","",""
"sailing-trial","201","880010","0.0-11.0-160.0","","","","false","","","","","","","","","","488.5","","67.5","","2","0","arrowright","1","arrowleft","[0.675,0.325,0.15,0.85]","","",""
"sailing-trial","202","882560","0.0-11.0-161.0","","","","false","","","","","","","","","","null","","1212.6000000014901","","0","0","null","null","arrowup","[0.675,0.325,0.15,0.85]","","",""
"sailing-trial","203","885329","0.0-11.0-162.0","","","","false","","","","","","","","","","441.79999999701977","","111.60000000149012","","2","0","arrowright","1","arrowleft","[0.675,0.325,0.15,0.85]","","",""
"sailing-trial","204","888113","0.0-11.0-163.0","","","","false","","","","","","","","","","null","","886.1999999992549","","2","0","null","null","arrowup","[0.675,0.325,0.15,0.85]","","",""
"sailing-trial","205","891224","0.0-11.0-164.0","","","","false","","","","","","","","","","672.3000000007451","","303.5","","1","0","arrowleft","0","arrowright","[0.675,0.325,0.15,0.85]","","",""
"sailing-trial","206","894008","0.0-11.0-165.0","","","","false","","","","","","","","","","null","","974.8000000007451","","1","0","null","null","arrowup","[0.675,0.325,0.15,0.85]","","",""
"sailing-trial","207","897631","0.0-11.0-166.0","","","","false","","","","","","","","","","646.2999999970198","","36.899999998509884","","0","1","arrowleft","0","arrowleft","[0.675,0.325,0.15,0.85]","","",""
"sailing-trial","208","899297","0.0-11.0-167.0","","","","false","","","","","","","","","","null","","639.8000000007451","","2","0","null","null","arrowup","[0.675,0.325,0.15,0.85]","","",""
"sailing-trial","209","902965","0.0-11.0-168.0","","","","false","","","","","","","","","","158.59999999776483","","450.5","","0","1","arrowleft","0","arrowleft","[0.675,0.325,0.15,0.85]","","",""
"sailing-trial","210","906248","0.0-11.0-169.0","","","","false","","","","","","","","","","null","","555.5","","0","1","null","null","arrowup","[0.675,0.325,0.15,0.85]","","",""
"sailing-trial","211","908664","0.0-11.0-170.0","","","","false","","","","","","","","","","86.39999999850988","","168.39999999850988","","0","0","arrowleft","0","arrowleft","[0.675,0.325,0.15,0.85]","","",""
"sailing-trial","212","911265","0.0-11.0-171.0","","","","false","","","","","","","","","","null","","918.3999999985099","","0","1","null","null","arrowup","[0.675,0.325,0.15,0.85]","","",""
"sailing-trial","213","913551","0.0-11.0-172.0","","","","false","","","","","","","","","","11.800000000745058","","35.900000002235174","","0","0","arrowleft","0","arrowleft","[0.675,0.325,0.15,0.85]","","",""
"sailing-trial","214","915032","0.0-11.0-173.0","","","","false","","","","","","","","","","null","","414.30000000074506","","2","0","null","null","arrowup","[0.675,0.325,0.15,0.85]","","",""
"sailing-trial","215","917964","0.0-11.0-174.0","","","","false","","","","","","","","","","53.600000001490116","","27.600000001490116","","0","1","arrowleft","0","arrowleft","[0.675,0.325,0.15,0.85]","","",""
"sailing-trial","216","919959","0.0-11.0-175.0","","","","false","","","","","","","","","","null","","842","","2","0","null","null","arrowup","[0.675,0.325,0.15,0.85]","","",""
"sailing-trial","217","922288","0.0-11.0-176.0","","","","false","","","","","","","","","","87.89999999850988","","139.59999999776483","","0","0","arrowleft","0","arrowleft","[0.15,0.85,0.675,0.325]","","",""
"sailing-trial","218","923528","0.0-11.0-177.0","","","","false","","","","","","","","","","null","","143.5","","3","0","null","null","arrowup","[0.15,0.85,0.675,0.325]","","",""
"sailing-trial","219","926168","0.0-11.0-178.0","","","","false","","","","","","","","","","151.39999999850988","","313.6000000014901","","0","0","arrowleft","0","arrowleft","[0.15,0.85,0.675,0.325]","","",""
"sailing-trial","220","927895","0.0-11.0-179.0","","","","false","","","","","","","","","","null","","478.80000000074506","","0","0","null","null","arrowup","[0.15,0.85,0.675,0.325]","","",""
"sailing-trial","221","930992","0.0-11.0-180.0","","","","false","","","","","","","","","","375.30000000074506","","219.30000000074506","","3","0","arrowright","1","arrowright","[0.15,0.85,0.675,0.325]","","",""
"sailing-trial","222","934180","0.0-11.0-181.0","","","","false","","","","","","","","","","null","","1494.5","","1","1","null","null","arrowup","[0.15,0.85,0.675,0.325]","","",""
"sailing-trial","223","938414","0.0-11.0-182.0","","","","false","","","","","","","","","","1185.800000000745","","38.5","","1","1","arrowleft","0","arrowright","[0.15,0.85,0.675,0.325]","","",""
"sailing-trial","224","942384","0.0-11.0-183.0","","","","false","","","","","","","","","","null","","992.3000000007451","","0","0","null","null","arrowup","[0.15,0.85,0.675,0.325]","","",""
"sailing-trial","225","945265","0.0-11.0-184.0","","","","false","","","","","","","","","","117.70000000298023","","56.80000000074506","","1","1","arrowleft","0","arrowright","[0.15,0.85,0.675,0.325]","","",""
"sailing-trial","226","947056","0.0-11.0-185.0","","","","false","","","","","","","","","","null","","315.20000000298023","","3","0","null","null","arrowup","[0.15,0.85,0.675,0.325]","","",""
"sailing-trial","227","950056","0.0-11.0-186.0","","","","false","","","","","","","","","","278.9000000022352","","80","","1","0","arrowleft","0","arrowright","[0.15,0.85,0.675,0.325]","","",""
"sailing-trial","228","952920","0.0-11.0-187.0","","","","false","","","","","","","","","","null","","702.8000000007451","","0","0","null","null","arrowup","[0.15,0.85,0.675,0.325]","","",""
"sailing-trial","229","956231","0.0-11.0-188.0","","","","false","","","","","","","","","","232.10000000149012","","455.8999999985099","","1","1","arrowleft","0","arrowright","[0.15,0.85,0.675,0.325]","","",""
"sailing-trial","230","959749","0.0-11.0-189.0","","","","false","","","","","","","","","","null","","983.3999999985099","","1","1","null","null","arrowup","[0.15,0.85,0.675,0.325]","","",""
"sailing-trial","231","964264","0.0-11.0-190.0","","","","false","","","","","","","","","","200.80000000074506","","286.80000000074506","","1","0","arrowleft","0","arrowright","[0.15,0.85,0.675,0.325]","","",""
"sailing-trial","232","966380","0.0-11.0-191.0","","","","false","","","","","","","","","","null","","454.30000000074506","","2","1","null","null","arrowup","[0.15,0.85,0.675,0.325]","","",""
"sailing-trial","233","970265","0.0-11.0-192.0","","","","false","","","","","","","","","","650.3999999985099","","28.800000000745058","","2","1","arrowright","1","arrowleft","[0.15,0.85,0.675,0.325]","","",""
"sailing-trial","234","973073","0.0-11.0-193.0","","","","false","","","","","","","","","","null","","893.4000000022352","","3","0","null","null","arrowup","[0.15,0.85,0.675,0.325]","","",""
"sailing-trial","235","976247","0.0-11.0-194.0","","","","false","","","","","","","","","","413.6000000014901","","155.30000000074506","","2","1","arrowright","1","arrowleft","[0.325,0.675,0.85,0.15]","","",""
"sailing-trial","236","978580","0.0-11.0-195.0","","","","false","","","","","","","","","","null","","16.399999998509884","","2","1","null","null","arrowup","[0.325,0.675,0.85,0.15]","","",""
"sailing-trial","237","981547","0.0-11.0-196.0","","","","false","","","","","","","","","","210.89999999850988","","141.80000000074506","","2","1","arrowright","1","arrowleft","[0.325,0.675,0.85,0.15]","","",""
"sailing-trial","238","984030","0.0-11.0-197.0","","","","false","","","","","","","","","","null","","482.69999999925494","","1","1","null","null","arrowup","[0.325,0.675,0.85,0.15]","","",""
"sailing-trial","239","987230","0.0-11.0-198.0","","","","false","","","","","","","","","","487.9000000022352","","41.69999999925494","","2","1","arrowright","1","arrowleft","[0.325,0.675,0.85,0.15]","","",""
"sailing-trial","240","989680","0.0-11.0-199.0","","","","false","","","","","","","","","","null","","815.8000000007451","","1","1","null","null","arrowup","[0.325,0.675,0.85,0.15]","","",""
"sailing-trial","241","992447","0.0-11.0-200.0","","","","false","","","","","","","","","","103","","134.40000000223517","","2","1","arrowright","1","arrowleft","[0.325,0.675,0.85,0.15]","","",""
"sailing-trial","242","994464","0.0-11.0-201.0","","","","false","","","","","","","","","","null","","319.3999999985099","","3","1","null","null","arrowup","[0.325,0.675,0.85,0.15]","","",""
"sailing-trial","243","997497","0.0-11.0-202.0","","","","false","","","","","","","","","","96.19999999925494","","271.8999999985099","","2","1","arrowright","1","arrowleft","[0.325,0.675,0.85,0.15]","","",""
"sailing-trial","244","999559","0.0-11.0-203.0","","","","false","","","","","","","","","","null","","893.8999999985099","","1","0","null","null","arrowup","[0.325,0.675,0.85,0.15]","","",""
"sailing-trial","245","1002466","0.0-11.0-204.0","","","","false","","","","","","","","","","23.599999997764826","","229.89999999850988","","2","1","arrowright","1","arrowleft","[0.325,0.675,0.85,0.15]","","",""
"sailing-trial","246","1004081","0.0-11.0-205.0","","","","false","","","","","","","","","","null","","64.60000000149012","","0","1","null","null","arrowup","[0.325,0.675,0.85,0.15]","","",""
"sailing-trial","247","1007214","0.0-11.0-206.0","","","","false","","","","","","","","","","173.80000000074506","","91.30000000074506","","2","1","arrowright","1","arrowleft","[0.325,0.675,0.85,0.15]","","",""
"sailing-trial","248","1010413","0.0-11.0-207.0","","","","false","","","","","","","","","","null","","1609.0999999977648","","1","1","null","null","arrowup","[0.325,0.675,0.85,0.15]","","",""
"sailing-trial","249","1013464","0.0-11.0-208.0","","","","false","","","","","","","","","","377.5","","117.80000000074506","","2","1","arrowright","1","arrowleft","[0.325,0.675,0.85,0.15]","","",""
"sailing-trial","250","1016414","0.0-11.0-209.0","","","","false","","","","","","","","","","null","","830.8999999985099","","0","1","null","null","arrowup","[0.325,0.675,0.85,0.15]","","",""
"sailing-trial","251","1019681","0.0-11.0-210.0","","","","false","","","","","","","","","","208.80000000074506","","317.1000000014901","","2","1","arrowright","1","arrowleft","[0.15,0.85,0.675,0.325]","","",""
"sailing-trial","252","1022264","0.0-11.0-211.0","","","","false","","","","","","","","","","null","","797.3999999985099","","1","1","null","null","arrowup","[0.15,0.85,0.675,0.325]","","",""
"sailing-trial","253","1024719","0.0-11.0-212.0","","","","false","","","","","","","","","","224","","9.899999998509884","","2","0","arrowright","1","arrowleft","[0.15,0.85,0.675,0.325]","","",""
"sailing-trial","254","1027681","0.0-11.0-213.0","","","","false","","","","","","","","","","null","","1127","","1","1","null","null","arrowup","[0.15,0.85,0.675,0.325]","","",""
"sailing-trial","255","1030848","0.0-11.0-214.0","","","","false","","","","","","","","","","132.80000000074506","","486.9000000022352","","2","1","arrowright","1","arrowleft","[0.15,0.85,0.675,0.325]","","",""
"sailing-trial","256","1034128","0.0-11.0-215.0","","","","false","","","","","","","","","","null","","928.1999999992549","","3","0","null","null","arrowup","[0.15,0.85,0.675,0.325]","","",""
"sailing-trial","257","1037165","0.0-11.0-216.0","","","","false","","","","","","","","","","399.20000000298023","","73.19999999925494","","2","1","arrowright","1","arrowleft","[0.15,0.85,0.675,0.325]","","",""
"sailing-trial","258","1039699","0.0-11.0-217.0","","","","false","","","","","","","","","","null","","658.2000000029802","","1","1","null","null","arrowup","[0.15,0.85,0.675,0.325]","","",""
"sailing-trial","259","1042329","0.0-11.0-218.0","","","","false","","","","","","","","","","204.80000000074506","","73.59999999776483","","2","0","arrowright","1","arrowleft","[0.15,0.85,0.675,0.325]","","",""
"sailing-trial","260","1045177","0.0-11.0-219.0","","","","false","","","","","","","","","","null","","1040","","0","0","null","null","arrowup","[0.15,0.85,0.675,0.325]","","",""
"sailing-trial","261","1048064","0.0-11.0-220.0","","","","false","","","","","","","","","","237.5","","62.5","","1","1","arrowleft","0","arrowright","[0.15,0.85,0.675,0.325]","","",""
"sailing-trial","262","1050744","0.0-11.0-221.0","","","","false","","","","","","","","","","null","","871.6999999992549","","0","0","null","null","arrowup","[0.15,0.85,0.675,0.325]","","",""
"sailing-trial","263","1053582","0.0-11.0-222.0","","","","false","","","","","","","","","","31.699999999254942","","206.39999999850988","","1","1","arrowleft","0","arrowright","[0.15,0.85,0.675,0.325]","","",""
"sailing-trial","264","1055944","0.0-11.0-223.0","","","","false","","","","","","","","","","null","","824","","3","0","null","null","arrowup","[0.15,0.85,0.675,0.325]","","",""
"sailing-trial","265","1059434","0.0-11.0-224.0","","","","false","","","","","","","","","","639","","0.5","","1","1","arrowleft","0","arrowright","[0.15,0.85,0.675,0.325]","","",""
"sailing-trial","266","1062232","0.0-11.0-225.0","","","","false","","","","","","","","","","null","","188.70000000298023","","3","1","null","null","arrowup","[0.15,0.85,0.675,0.325]","","",""
"sailing-trial","267","1065099","0.0-11.0-226.0","","","","false","","","","","","","","","","118.69999999925494","","15.900000002235174","","1","1","arrowleft","0","arrowright","[0.15,0.85,0.675,0.325]","","",""
"sailing-trial","268","1066815","0.0-11.0-227.0","","","","false","","","","","","","","","","null","","98.19999999925494","","1","1","null","null","arrowup","[0.15,0.85,0.675,0.325]","","",""
"sailing-trial","269","1069847","0.0-11.0-228.0","","","","false","","","","","","","","","","256.70000000298023","","51.80000000074506","","1","1","arrowleft","0","arrowright","[0.325,0.675,0.85,0.15]","","",""
"sailing-trial","270","1071549","0.0-11.0-229.0","","","","false","","","","","","","","","","null","","64","","1","1","null","null","arrowup","[0.325,0.675,0.85,0.15]","","",""
"sailing-trial","271","1073753","0.0-11.0-230.0","","","","false","","","","","","","","","","73.70000000298023","","5.899999998509884","","1","0","arrowleft","0","arrowright","[0.325,0.675,0.85,0.15]","","",""
"sailing-trial","272","1076348","0.0-11.0-231.0","","","","false","","","","","","","","","","null","","1038.7000000029802","","2","1","null","null","arrowup","[0.325,0.675,0.85,0.15]","","",""
"sailing-trial","273","1079415","0.0-11.0-232.0","","","","false","","","","","","","","","","331.6000000014901","","83.09999999776483","","1","1","arrowleft","0","arrowright","[0.325,0.675,0.85,0.15]","","",""
"sailing-trial","274","1080521","0.0-11.0-233.0","","","","false","","","","","","","","","","null","","16.399999998509884","","3","0","null","null","arrowup","[0.325,0.675,0.85,0.15]","","",""
"sailing-trial","275","1083046","0.0-11.0-234.0","","","","false","","","","","","","","","","367","","82.80000000074506","","1","0","arrowleft","0","arrowright","[0.325,0.675,0.85,0.15]","","",""
"sailing-trial","276","1084544","0.0-11.0-235.0","","","","false","","","","","","","","","","null","","176.30000000074506","","3","0","null","null","arrowup","[0.325,0.675,0.85,0.15]","","",""
"sailing-trial","277","1088147","0.0-11.0-236.0","","","","false","","","","","","","","","","607.3999999985099","","264.1000000014901","","1","1","arrowleft","0","arrowright","[0.325,0.675,0.85,0.15]","","",""
"sailing-trial","278","1092464","0.0-11.0-237.0","","","","false","","","","","","","","","","null","","1020.4000000022352","","2","1","null","null","arrowup","[0.325,0.675,0.85,0.15]","","",""
"sailing-trial","279","1095288","0.0-11.0-238.0","","","","false","","","","","","","","","","454.20000000298023","","153.60000000149012","","2","0","arrowright","1","arrowleft","[0.325,0.675,0.85,0.15]","","",""
"sailing-trial","280","1096632","0.0-11.0-239.0","","","","false","","","","","","","","","","null","","38.599999997764826","","3","0","null","null","arrowup","[0.325,0.675,0.85,0.15]","","",""
"sailing-trial","281","1099392","0.0-11.0-240.0","","","","false","","","","","","","","","","247","","113.30000000074506","","1","0","arrowleft","0","arrowright","[0.325,0.675,0.85,0.15]","","",""
"sailing-trial","282","1102792","0.0-11.0-241.0","","","","false","","","","","","","","","","null","","1255","","3","0","null","null","arrowup","[0.325,0.675,0.85,0.15]","","",""
"sailing-trial","283","1105448","0.0-11.0-242.0","","","","false","","","","","","","","","","447.69999999925494","","68.5","","1","0","arrowleft","0","arrowright","[0.325,0.675,0.85,0.15]","","",""
"sailing-trial","284","1108698","0.0-11.0-243.0","","","","false","","","","","","","","","","null","","1173","","1","1","null","null","arrowup","[0.325,0.675,0.85,0.15]","","",""
"sailing-trial","285","1111730","0.0-11.0-244.0","","","","false","","","","","","","","","","286.30000000074506","","86.80000000074506","","1","1","arrowleft","0","arrowright","[0.325,0.675,0.85,0.15]","","",""
"sailing-trial","286","1114047","0.0-11.0-245.0","","","","false","","","","","","","","","","null","","759.1999999992549","","2","1","null","null","arrowup","[0.325,0.675,0.85,0.15]","","",""
"sailing-trial","287","1117048","0.0-11.0-246.0","","","","false","","","","","","","","","","336.6000000014901","","102.20000000298023","","1","1","arrowleft","0","arrowright","[0.675,0.325,0.15,0.85]","","",""
"sailing-trial","288","1118865","0.0-11.0-247.0","","","","false","","","","","","","","","","null","","143.09999999776483","","1","1","null","null","arrowup","[0.675,0.325,0.15,0.85]","","",""
"sailing-trial","289","1122073","0.0-11.0-248.0","","","","false","","","","","","","","","","750.7000000029802","","133.89999999850988","","1","0","arrowleft","0","arrowright","[0.675,0.325,0.15,0.85]","","",""
"sailing-trial","290","1125631","0.0-11.0-249.0","","","","false","","","","","","","","","","null","","44.400000002235174","","1","1","null","null","arrowup","[0.675,0.325,0.15,0.85]","","",""
"sailing-trial","291","1130464","0.0-11.0-250.0","","","","false","","","","","","","","","","2743.699999999255","","46.599999997764826","","1","0","arrowleft","0","arrowright","[0.675,0.325,0.15,0.85]","","",""
"sailing-trial","292","1133609","0.0-11.0-251.0","","","","false","","","","","","","","","","null","","846.8000000007451","","2","0","null","null","arrowup","[0.675,0.325,0.15,0.85]","","",""
"sailing-trial","293","1136232","0.0-11.0-252.0","","","","false","","","","","","","","","","357.80000000074506","","167.19999999925494","","0","0","arrowleft","0","arrowleft","[0.675,0.325,0.15,0.85]","","",""
"sailing-trial","294","1139982","0.0-11.0-253.0","","","","false","","","","","","","","","","null","","1238.7999999970198","","1","1","null","null","arrowup","[0.675,0.325,0.15,0.85]","","",""
"sailing-trial","295","1142577","0.0-11.0-254.0","","","","false","","","","","","","","","","299.3999999985099","","178.80000000074506","","1","0","arrowleft","0","arrowright","[0.675,0.325,0.15,0.85]","","",""
"sailing-trial","296","1145515","0.0-11.0-255.0","","","","false","","","","","","","","","","null","","919.1999999992549","","3","1","null","null","arrowup","[0.675,0.325,0.15,0.85]","","",""
"sailing-trial","297","1148585","0.0-11.0-256.0","","","","false","","","","","","","","","","771.6000000014901","","169.10000000149012","","3","0","arrowright","1","arrowright","[0.675,0.325,0.15,0.85]","","",""
"sailing-trial","298","1151352","0.0-11.0-257.0","","","","false","","","","","","","","","","null","","1101.5","","2","0","null","null","arrowup","[0.675,0.325,0.15,0.85]","","",""
"sailing-trial","299","1153785","0.0-11.0-258.0","","","","false","","","","","","","","","","94.69999999925494","","83.80000000074506","","3","0","arrowright","1","arrowright","[0.675,0.325,0.15,0.85]","","",""
"sailing-trial","300","1156548","0.0-11.0-259.0","","","","false","","","","","","","","","","null","","838.5","","1","1","null","null","arrowup","[0.675,0.325,0.15,0.85]","","",""
"sailing-trial","301","1158850","0.0-11.0-260.0","","","","false","","","","","","","","","","99.39999999850988","","20.5","","1","0","arrowleft","0","arrowright","[0.675,0.325,0.15,0.85]","","",""
"sailing-trial","302","1161176","0.0-11.0-261.0","","","","false","","","","","","","","","","null","","846.6000000014901","","2","0","null","null","arrowup","[0.675,0.325,0.15,0.85]","","",""
"sailing-trial","303","1163648","0.0-11.0-262.0","","","","false","","","","","","","","","","266.1000000014901","","11.100000001490116","","1","0","arrowleft","0","arrowright","[0.675,0.325,0.15,0.85]","","",""
"sailing-trial","304","1165881","0.0-11.0-263.0","","","","false","","","","","","","","","","null","","799.3000000007451","","2","0","null","null","arrowup","[0.675,0.325,0.15,0.85]","","",""
"sailing-trial","305","1168361","0.0-11.0-264.0","","","","false","","","","","","","","","","222.89999999850988","","66.60000000149012","","1","0","arrowleft","0","arrowright","[0.675,0.325,0.15,0.85]","","",""
"sailing-trial","306","1171898","0.0-11.0-265.0","","","","false","","","","","","","","","","null","","1037.800000000745","","3","1","null","null","arrowup","[0.675,0.325,0.15,0.85]","","",""
"sailing-trial","307","1175047","0.0-11.0-266.0","","","","false","","","","","","","","","","220.69999999925494","","225.70000000298023","","3","1","arrowright","1","arrowright","[0.85,0.15,0.325,0.675]","","",""
"sailing-trial","308","1180464","0.0-11.0-267.0","","","","false","","","","","","","","","","null","","1026.5999999977648","","3","1","null","null","arrowup","[0.85,0.15,0.325,0.675]","","",""
"sailing-trial","309","1182989","0.0-11.0-268.0","","","","false","","","","","","","","","","198.40000000223517","","98.80000000074506","","3","0","arrowright","1","arrowright","[0.85,0.15,0.325,0.675]","","",""
"sailing-trial","310","1184801","0.0-11.0-269.0","","","","false","","","","","","","","","","null","","642.5999999977648","","1","0","null","null","arrowup","[0.85,0.15,0.325,0.675]","","",""
"sailing-trial","311","1187848","0.0-11.0-270.0","","","","false","","","","","","","","","","166.19999999925494","","175.09999999776483","","3","1","arrowright","1","arrowright","[0.85,0.15,0.325,0.675]","","",""
"sailing-trial","312","1189040","0.0-11.0-271.0","","","","false","","","","","","","","","","null","","104.80000000074506","","3","0","null","null","arrowup","[0.85,0.15,0.325,0.675]","","",""
"sailing-trial","313","1191503","0.0-11.0-272.0","","","","false","","","","","","","","","","223.09999999776483","","147.90000000223517","","3","0","arrowright","1","arrowright","[0.85,0.15,0.325,0.675]","","",""
"sailing-trial","314","1193149","0.0-11.0-273.0","","","","false","","","","","","","","","","null","","71.30000000074506","","0","1","null","null","arrowup","[0.85,0.15,0.325,0.675]","","",""
"sailing-trial","315","1196264","0.0-11.0-274.0","","","","false","","","","","","","","","","169.30000000074506","","809.7000000029802","","3","0","arrowright","1","arrowright","[0.85,0.15,0.325,0.675]","","",""
"sailing-trial","316","1199898","0.0-11.0-275.0","","","","false","","","","","","","","","","null","","927","","2","1","null","null","arrowup","[0.85,0.15,0.325,0.675]","","",""
"sailing-trial","317","1203081","0.0-11.0-276.0","","","","false","","","","","","","","","","324.4000000022352","","188.5","","2","1","arrowright","1","arrowleft","[0.85,0.15,0.325,0.675]","","",""
"sailing-trial","318","1204385","0.0-11.0-277.0","","","","false","","","","","","","","","","null","","157.19999999925494","","1","0","null","null","arrowup","[0.85,0.15,0.325,0.675]","","",""
"sailing-trial","319","1206848","0.0-11.0-278.0","","","","false","","","","","","","","","","109.5","","49.5","","2","0","arrowright","1","arrowleft","[0.85,0.15,0.325,0.675]","","",""
"sailing-trial","320","1209148","0.0-11.0-279.0","","","","false","","","","","","","","","","null","","6.299999997019768","","3","1","null","null","arrowup","[0.85,0.15,0.325,0.675]","","",""
"sailing-trial","321","1211888","0.0-11.0-280.0","","","","false","","","","","","","","","","267.30000000074506","","230.19999999925494","","1","0","arrowleft","0","arrowright","[0.85,0.15,0.325,0.675]","","",""
"sailing-trial","322","1213898","0.0-11.0-281.0","","","","false","","","","","","","","","","null","","374.6000000014901","","3","1","null","null","arrowup","[0.85,0.15,0.325,0.675]","","",""
"sailing-trial","323","1216368","0.0-11.0-282.0","","","","false","","","","","","","","","","165.80000000074506","","2.5","","3","0","arrowright","1","arrowright","[0.15,0.85,0.675,0.325]","","",""
"sailing-trial","324","1218731","0.0-11.0-283.0","","","","false","","","","","","","","","","null","","773.8000000007451","","1","1","null","null","arrowup","[0.15,0.85,0.675,0.325]","","",""
"sailing-trial","325","1221273","0.0-11.0-284.0","","","","false","","","","","","","","","","122.80000000074506","","307.1000000014901","","3","0","arrowright","1","arrowright","[0.15,0.85,0.675,0.325]","","",""
"sailing-trial","326","1224065","0.0-11.0-285.0","","","","false","","","","","","","","","","null","","798.1999999992549","","2","1","null","null","arrowup","[0.15,0.85,0.675,0.325]","","",""
"sailing-trial","327","1227415","0.0-11.0-286.0","","","","false","","","","","","","","","","453.6000000014901","","73.40000000223517","","2","1","arrowright","1","arrowleft","[0.15,0.85,0.675,0.325]","","",""
"sailing-trial","328","1229696","0.0-11.0-287.0","","","","false","","","","","","","","","","null","","770.1000000014901","","3","0","null","null","arrowup","[0.15,0.85,0.675,0.325]","","",""
"sailing-trial","329","1232564","0.0-11.0-288.0","","","","false","","","","","","","","","","217.19999999925494","","72.30000000074506","","2","1","arrowright","1","arrowleft","[0.15,0.85,0.675,0.325]","","",""
"sailing-trial","330","1235214","0.0-11.0-289.0","","","","false","","","","","","","","","","null","","690.6999999992549","","2","1","null","null","arrowup","[0.15,0.85,0.675,0.325]","","",""
"sailing-trial","331","1239496","0.0-11.0-290.0","","","","false","","","","","","","","","","1840.8999999985099","","243.39999999850988","","2","0","arrowright","1","arrowleft","[0.15,0.85,0.675,0.325]","","",""
"sailing-trial","332","1242631","0.0-11.0-291.0","","","","false","","","","","","","","","","null","","840.5","","2","1","null","null","arrowup","[0.15,0.85,0.675,0.325]","","",""
"sailing-trial","333","1245414","0.0-11.0-292.0","","","","false","","","","","","","","","","120.19999999925494","","143.40000000223517","","2","1","arrowright","1","arrowleft","[0.15,0.85,0.675,0.325]","","",""
"sailing-trial","334","1248414","0.0-11.0-293.0","","","","false","","","","","","","","","","null","","937.3000000007451","","3","1","null","null","arrowup","[0.15,0.85,0.675,0.325]","","",""
"sailing-trial","335","1251897","0.0-11.0-294.0","","","","false","","","","","","","","","","643.8000000007451","","155.59999999776483","","2","1","arrowright","1","arrowleft","[0.15,0.85,0.675,0.325]","","",""
"sailing-trial","336","1255098","0.0-11.0-295.0","","","","false","","","","","","","","","","null","","1141.5","","1","1","null","null","arrowup","[0.15,0.85,0.675,0.325]","","",""
"sailing-trial","337","1257865","0.0-11.0-296.0","","","","false","","","","","","","","","","483.6000000014901","","142.39999999850988","","2","0","arrowright","1","arrowleft","[0.15,0.85,0.675,0.325]","","",""
"sailing-trial","338","1260548","0.0-11.0-297.0","","","","false","","","","","","","","","","null","","881","","1","1","null","null","arrowup","[0.15,0.85,0.675,0.325]","","",""
"sailing-trial","339","1263849","0.0-11.0-298.0","","","","false","","","","","","","","","","585.5999999977648","","128.39999999850988","","2","1","arrowright","1","arrowleft","[0.325,0.675,0.85,0.15]","","",""
"sailing-trial","340","1267392","0.0-11.0-299.0","","","","false","","","","","","","","","","null","","869","","3","0","null","null","arrowup","[0.325,0.675,0.85,0.15]","","",""
"sailing-trial","341","1270182","0.0-11.0-300.0","","","","false","","","","","","","","","","95.59999999776483","","9.800000000745058","","2","1","arrowright","1","arrowleft","[0.325,0.675,0.85,0.15]","","",""
"sailing-trial","342","1272015","0.0-11.0-301.0","","","","false","","","","","","","","","","null","","171","","1","1","null","null","arrowup","[0.325,0.675,0.85,0.15]","","",""
"sailing-trial","343","1274732","0.0-11.0-302.0","","","","false","","","","","","","","","","40","","28","","2","1","arrowright","1","arrowleft","[0.325,0.675,0.85,0.15]","","",""
"sailing-trial","344","1277981","0.0-11.0-303.0","","","","false","","","","","","","","","","null","","1074.300000000745","","2","1","null","null","arrowup","[0.325,0.675,0.85,0.15]","","",""
"sailing-trial","345","1280881","0.0-11.0-304.0","","","","false","","","","","","","","","","201.90000000223517","","94.5","","2","1","arrowright","1","arrowleft","[0.325,0.675,0.85,0.15]","","",""
"sailing-trial","346","1282781","0.0-11.0-305.0","","","","false","","","","","","","","","","null","","141.69999999925494","","0","1","null","null","arrowup","[0.325,0.675,0.85,0.15]","","",""
"sailing-trial","347","1285715","0.0-11.0-306.0","","","","false","","","","","","","","","","305.5","","2.699999999254942","","2","1","arrowright","1","arrowleft","[0.325,0.675,0.85,0.15]","","",""
"sailing-trial","348","1286864","0.0-11.0-307.0","","","","false","","","","","","","","","","null","","83.19999999925494","","3","0","null","null","arrowup","[0.325,0.675,0.85,0.15]","","",""
"sailing-trial","349","1290562","0.0-11.0-308.0","","","","false","","","","","","","","","","383.8999999985099","","132.80000000074506","","2","0","arrowright","1","arrowleft","[0.325,0.675,0.85,0.15]","","",""
"sailing-trial","350","1293481","0.0-11.0-309.0","","","","false","","","","","","","","","","null","","966.4000000022352","","3","1","null","null","arrowup","[0.325,0.675,0.85,0.15]","","",""
"sailing-trial","351","1296168","0.0-11.0-310.0","","","","false","","","","","","","","","","247.29999999701977","","351.5999999977648","","3","0","arrowright","1","arrowright","[0.325,0.675,0.85,0.15]","","",""
"sailing-trial","352","1298825","0.0-11.0-311.0","","","","false","","","","","","","","","","null","","918.4000000022352","","3","0","null","null","arrowup","[0.325,0.675,0.85,0.15]","","",""
"sailing-trial","353","1302298","0.0-11.0-312.0","","","","false","","","","","","","","","","862.6999999992549","","107.80000000074506","","2","1","arrowright","1","arrowleft","[0.325,0.675,0.85,0.15]","","",""
"sailing-trial","354","1304497","0.0-11.0-313.0","","","","false","","","","","","","","","","null","","789.6999999992549","","3","0","null","null","arrowup","[0.325,0.675,0.85,0.15]","","",""
"sailing-trial","355","1307966","0.0-11.0-314.0","","","","false","","","","","","","","","","358.19999999925494","","131.19999999925494","","2","1","arrowright","1","arrowleft","[0.15,0.85,0.675,0.325]","","",""
"sailing-trial","356","1310457","0.0-11.0-315.0","","","","false","","","","","","","","","","null","","1059.5","","3","0","null","null","arrowup","[0.15,0.85,0.675,0.325]","","",""
"sailing-trial","357","1313344","0.0-11.0-316.0","","","","false","","","","","","","","","","590.1000000014901","","5.400000002235174","","2","0","arrowright","1","arrowleft","[0.15,0.85,0.675,0.325]","","",""
"sailing-trial","358","1315889","0.0-11.0-317.0","","","","false","","","","","","","","","","null","","823.3000000007451","","0","0","null","null","arrowup","[0.15,0.85,0.675,0.325]","","",""
"sailing-trial","359","1319298","0.0-11.0-318.0","","","","false","","","","","","","","","","174.5","","515.9000000022352","","2","1","arrowright","1","arrowleft","[0.15,0.85,0.675,0.325]","","",""
"sailing-trial","360","1323416","0.0-11.0-319.0","","","","false","","","","","","","","","","null","","852.3999999985099","","2","1","null","null","arrowup","[0.15,0.85,0.675,0.325]","","",""
"sailing-trial","361","1326448","0.0-11.0-320.0","","","","false","","","","","","","","","","341.80000000074506","","167.30000000074506","","2","1","arrowright","1","arrowleft","[0.15,0.85,0.675,0.325]","","",""
"sailing-trial","362","1329150","0.0-11.0-321.0","","","","false","","","","","","","","","","null","","720.1000000014901","","2","1","null","null","arrowup","[0.15,0.85,0.675,0.325]","","",""
"sailing-trial","363","1332113","0.0-11.0-322.0","","","","false","","","","","","","","","","344.5","","32.5","","2","1","arrowright","1","arrowleft","[0.15,0.85,0.675,0.325]","","",""
"sailing-trial","364","1334081","0.0-11.0-323.0","","","","false","","","","","","","","","","null","","360.4000000022352","","1","1","null","null","arrowup","[0.15,0.85,0.675,0.325]","","",""
"sailing-trial","365","1337783","0.0-11.0-324.0","","","","false","","","","","","","","","","958.3000000007451","","155.69999999925494","","2","1","arrowright","1","arrowleft","[0.15,0.85,0.675,0.325]","","",""
"sailing-trial","366","1340495","0.0-11.0-325.0","","","","false","","","","","","","","","","null","","887.6999999992549","","0","0","null","null","arrowup","[0.15,0.85,0.675,0.325]","","",""
"sailing-trial","367","1343217","0.0-11.0-326.0","","","","false","","","","","","","","","","522","","62","","2","0","arrowright","1","arrowleft","[0.15,0.85,0.675,0.325]","","",""
"sailing-trial","368","1345624","0.0-11.0-327.0","","","","false","","","","","","","","","","null","","821","","0","0","null","null","arrowup","[0.15,0.85,0.675,0.325]","","",""
"sailing-trial","369","1348767","0.0-11.0-328.0","","","","false","","","","","","","","","","222.5","","99.60000000149012","","1","1","arrowleft","0","arrowright","[0.15,0.85,0.675,0.325]","","",""
"sailing-trial","370","1352209","0.0-11.0-329.0","","","","false","","","","","","","","","","null","","784.3000000007451","","0","0","null","null","arrowup","[0.15,0.85,0.675,0.325]","","",""
"sailing-trial","371","1354947","0.0-11.0-330.0","","","","false","","","","","","","","","","4.700000002980232","","85","","1","1","arrowleft","0","arrowright","[0.325,0.675,0.85,0.15]","","",""
"sailing-trial","372","1356631","0.0-11.0-331.0","","","","false","","","","","","","","","","null","","116","","2","1","null","null","arrowup","[0.325,0.675,0.85,0.15]","","",""
"sailing-trial","373","1360097","0.0-11.0-332.0","","","","false","","","","","","","","","","648.2000000029802","","299.5999999977648","","1","1","arrowleft","0","arrowright","[0.325,0.675,0.85,0.15]","","",""
"sailing-trial","374","1363431","0.0-11.0-333.0","","","","false","","","","","","","","","","null","","798.1000000014901","","2","1","null","null","arrowup","[0.325,0.675,0.85,0.15]","","",""
"sailing-trial","375","1366449","0.0-11.0-334.0","","","","false","","","","","","","","","","80.40000000223517","","209.30000000074506","","1","1","arrowleft","0","arrowright","[0.325,0.675,0.85,0.15]","","",""
"sailing-trial","376","1368223","0.0-11.0-335.0","","","","false","","","","","","","","","","null","","660.5","","0","0","null","null","arrowup","[0.325,0.675,0.85,0.15]","","",""
"sailing-trial","377","1370840","0.0-11.0-336.0","","","","false","","","","","","","","","","424","","180","","1","0","arrowleft","0","arrowright","[0.325,0.675,0.85,0.15]","","",""
"sailing-trial","378","1372136","0.0-11.0-337.0","","","","false","","","","","","","","","","null","","126.80000000074506","","0","0","null","null","arrowup","[0.325,0.675,0.85,0.15]","","",""
"sailing-trial","379","1374964","0.0-11.0-338.0","","","","false","","","","","","","","","","103.09999999776483","","20.699999999254942","","1","1","arrowleft","0","arrowright","[0.325,0.675,0.85,0.15]","","",""
"sailing-trial","380","1377947","0.0-11.0-339.0","","","","false","","","","","","","","","","null","","729","","1","1","null","null","arrowup","[0.325,0.675,0.85,0.15]","","",""
"sailing-trial","381","1381216","0.0-11.0-340.0","","","","false","","","","","","","","","","27.600000001490116","","221.80000000074506","","1","1","arrowleft","0","arrowright","[0.325,0.675,0.85,0.15]","","",""
"sailing-trial","382","1382914","0.0-11.0-341.0","","","","false","","","","","","","","","","null","","127.39999999850988","","0","1","null","null","arrowup","[0.325,0.675,0.85,0.15]","","",""
"sailing-trial","383","1386014","0.0-11.0-342.0","","","","false","","","","","","","","","","299.80000000074506","","212.59999999776483","","1","1","arrowleft","0","arrowright","[0.325,0.675,0.85,0.15]","","",""
"sailing-trial","384","1389408","0.0-11.0-343.0","","","","false","","","","","","","","","","null","","710.3999999985099","","3","0","null","null","arrowup","[0.325,0.675,0.85,0.15]","","",""
"sailing-trial","385","1392048","0.0-11.0-344.0","","","","false","","","","","","","","","","87.19999999925494","","207.89999999850988","","1","0","arrowleft","0","arrowright","[0.325,0.675,0.85,0.15]","","",""
"sailing-trial","386","1394631","0.0-11.0-345.0","","","","false","","","","","","","","","","null","","919.3000000007451","","2","1","null","null","arrowup","[0.325,0.675,0.85,0.15]","","",""
"sailing-trial","387","1398081","0.0-11.0-346.0","","","","false","","","","","","","","","","551.3999999985099","","222.5","","1","1","arrowleft","0","arrowright","[0.15,0.85,0.675,0.325]","","",""
"sailing-trial","388","1399416","0.0-11.0-347.0","","","","false","","","","","","","","","","null","","166.30000000074506","","3","0","null","null","arrowup","[0.15,0.85,0.675,0.325]","","",""
"sailing-trial","389","1402550","0.0-11.0-348.0","","","","false","","","","","","","","","","390.19999999925494","","101","","1","1","arrowleft","0","arrowright","[0.15,0.85,0.675,0.325]","","",""
"sailing-trial","390","1403777","0.0-11.0-349.0","","","","false","","","","","","","","","","null","","33.899999998509884","","3","0","null","null","arrowup","[0.15,0.85,0.675,0.325]","","",""
"sailing-trial","391","1407481","0.0-11.0-350.0","","","","false","","","","","","","","","","373.80000000074506","","615.8999999985099","","1","1","arrowleft","0","arrowright","[0.15,0.85,0.675,0.325]","","",""
"sailing-trial","392","1410014","0.0-11.0-351.0","","","","false","","","","","","","","","","null","","870.7999999970198","","3","1","null","null","arrowup","[0.15,0.85,0.675,0.325]","","",""
"sailing-trial","393","1412914","0.0-11.0-352.0","","","","false","","","","","","","","","","139.59999999776483","","255.10000000149012","","1","1","arrowleft","0","arrowright","[0.15,0.85,0.675,0.325]","","",""
"sailing-trial","394","1414073","0.0-11.0-353.0","","","","false","","","","","","","","","","null","","52.5","","3","0","null","null","arrowup","[0.15,0.85,0.675,0.325]","","",""
"sailing-trial","395","1417281","0.0-11.0-354.0","","","","false","","","","","","","","","","374.8999999985099","","125.09999999776483","","1","1","arrowleft","0","arrowright","[0.15,0.85,0.675,0.325]","","",""
"sailing-trial","396","1420264","0.0-11.0-355.0","","","","false","","","","","","","","","","null","","806.6999999992549","","1","1","null","null","arrowup","[0.15,0.85,0.675,0.325]","","",""
"sailing-trial","397","1422960","0.0-11.0-356.0","","","","false","","","","","","","","","","409.5999999977648","","139.5","","1","0","arrowleft","0","arrowright","[0.15,0.85,0.675,0.325]","","",""
"sailing-trial","398","1424798","0.0-11.0-357.0","","","","false","","","","","","","","","","null","","151.89999999850988","","1","1","null","null","arrowup","[0.15,0.85,0.675,0.325]","","",""
"sailing-trial","399","1428315","0.0-11.0-358.0","","","","false","","","","","","","","","","145.19999999925494","","768.9000000022352","","1","1","arrowleft","0","arrowright","[0.15,0.85,0.675,0.325]","","",""
"sailing-trial","400","1430731","0.0-11.0-359.0","","","","false","","","","","","","","","","null","","661.5","","1","1","null","null","arrowup","[0.15,0.85,0.675,0.325]","","",""
"sailing-trial","401","1433465","0.0-11.0-360.0","","","","false","","","","","","","","","","76.19999999925494","","29.400000002235174","","1","1","arrowleft","0","arrowright","[0.15,0.85,0.675,0.325]","","",""
"sailing-trial","402","1434744","0.0-11.0-361.0","","","","false","","","","","","","","","","null","","166.19999999925494","","0","0","null","null","arrowup","[0.15,0.85,0.675,0.325]","","",""
"sailing-trial","403","1436944","0.0-11.0-362.0","","","","false","","","","","","","","","","0.19999999925494194","","49.5","","1","0","arrowleft","0","arrowright","[0.15,0.85,0.675,0.325]","","",""
"sailing-trial","404","1439499","0.0-11.0-363.0","","","","false","","","","","","","","","","null","","886.6000000014901","","2","1","null","null","arrowup","[0.15,0.85,0.675,0.325]","","",""
"sailing-trial","405","1441960","0.0-11.0-364.0","","","","false","","","","","","","","","","43.100000001490116","","335.8999999985099","","1","0","arrowleft","0","arrowright","[0.325,0.675,0.85,0.15]","","",""
"sailing-trial","406","1444433","0.0-11.0-365.0","","","","false","","","","","","","","","","null","","750.3000000007451","","1","1","null","null","arrowup","[0.325,0.675,0.85,0.15]","","",""
"sailing-trial","407","1447248","0.0-11.0-366.0","","","","false","","","","","","","","","","38","","116.40000000223517","","1","1","arrowleft","0","arrowright","[0.325,0.675,0.85,0.15]","","",""
"sailing-trial","408","1449408","0.0-11.0-367.0","","","","false","","","","","","","","","","null","","831.2999999970198","","1","0","null","null","arrowup","[0.325,0.675,0.85,0.15]","","",""
"sailing-trial","409","1453048","0.0-11.0-368.0","","","","false","","","","","","","","","","190.90000000223517","","181.30000000074506","","1","1","arrowleft","0","arrowright","[0.325,0.675,0.85,0.15]","","",""
"sailing-trial","410","1454497","0.0-11.0-369.0","","","","false","","","","","","","","","","null","","368","","2","0","null","null","arrowup","[0.325,0.675,0.85,0.15]","","",""
"sailing-trial","411","1457784","0.0-11.0-370.0","","","","false","","","","","","","","","","957.9000000022352","","306.80000000074506","","1","0","arrowleft","0","arrowright","[0.325,0.675,0.85,0.15]","","",""
"sailing-trial","412","1459381","0.0-11.0-371.0","","","","false","","","","","","","","","","null","","6.299999997019768","","0","1","null","null","arrowup","[0.325,0.675,0.85,0.15]","","",""
"sailing-trial","413","1462024","0.0-11.0-372.0","","","","false","","","","","","","","","","259.6000000014901","","259.69999999925494","","0","0","arrowleft","0","arrowleft","[0.325,0.675,0.85,0.15]","","",""
"sailing-trial","414","1463456","0.0-11.0-373.0","","","","false","","","","","","","","","","null","","246.80000000074506","","0","0","null","null","arrowup","[0.325,0.675,0.85,0.15]","","",""
"sailing-trial","415","1466581","0.0-11.0-374.0","","","","false","","","","","","","","","","279.0999999977648","","133.69999999925494","","2","1","arrowright","1","arrowleft","[0.325,0.675,0.85,0.15]","","",""
"sailing-trial","416","1469698","0.0-11.0-375.0","","","","false","","","","","","","","","","null","","1537.800000000745","","2","1","null","null","arrowup","[0.325,0.675,0.85,0.15]","","",""
"sailing-trial","417","1472550","0.0-11.0-376.0","","","","false","","","","","","","","","","204.19999999925494","","72.80000000074506","","2","1","arrowright","1","arrowleft","[0.325,0.675,0.85,0.15]","","",""
"sailing-trial","418","1474548","0.0-11.0-377.0","","","","false","","","","","","","","","","null","","481.20000000298023","","0","1","null","null","arrowup","[0.325,0.675,0.85,0.15]","","",""
"sailing-trial","419","1477330","0.0-11.0-378.0","","","","false","","","","","","","","","","75.69999999925494","","102","","2","1","arrowright","1","arrowleft","[0.325,0.675,0.85,0.15]","","",""
"sailing-trial","420","1480067","0.0-11.0-379.0","","","","false","","","","","","","","","","null","","828.5","","2","1","null","null","arrowup","[0.325,0.675,0.85,0.15]","","",""
"sailing-trial","421","1483165","0.0-11.0-380.0","","","","false","","","","","","","","","","268.5","","103.09999999776483","","2","1","arrowright","1","arrowleft","[0.325,0.675,0.85,0.15]","","",""
"sailing-trial","422","1486398","0.0-11.0-381.0","","","","false","","","","","","","","","","null","","1283.699999999255","","2","1","null","null","arrowup","[0.325,0.675,0.85,0.15]","","",""
"sailing-trial","423","1489063","0.0-11.0-382.0","","","","false","","","","","","","","","","108.19999999925494","","26.199999999254942","","2","1","arrowright","1","arrowleft","[0.325,0.675,0.85,0.15]","","",""
"sailing-trial","424","1491966","0.0-11.0-383.0","","","","false","","","","","","","","","","null","","1330.800000000745","","2","1","null","null","arrowup","[0.325,0.675,0.85,0.15]","","",""
"sailing-trial","425","1494298","0.0-11.0-384.0","","","","false","","","","","","","","","","16.199999999254942","","110.5","","2","0","arrowright","1","arrowleft","[0.85,0.15,0.325,0.675]","","",""
"sailing-trial","426","1495793","0.0-11.0-385.0","","","","false","","","","","","","","","","null","","437.30000000074506","","3","0","null","null","arrowup","[0.85,0.15,0.325,0.675]","","",""
"sailing-trial","427","1498998","0.0-11.0-386.0","","","","false","","","","","","","","","","366.79999999701977","","216.10000000149012","","2","1","arrowright","1","arrowleft","[0.85,0.15,0.325,0.675]","","",""
"sailing-trial","428","1500698","0.0-11.0-387.0","","","","false","","","","","","","","","","null","","136.90000000223517","","3","1","null","null","arrowup","[0.85,0.15,0.325,0.675]","","",""
"sailing-trial","429","1503381","0.0-11.0-388.0","","","","false","","","","","","","","","","0.30000000074505806","","88.59999999776483","","2","1","arrowright","1","arrowleft","[0.85,0.15,0.325,0.675]","","",""
"sailing-trial","430","1506098","0.0-11.0-389.0","","","","false","","","","","","","","","","null","","737.6999999992549","","0","1","null","null","arrowup","[0.85,0.15,0.325,0.675]","","",""
"sailing-trial","431","1509298","0.0-11.0-390.0","","","","false","","","","","","","","","","499.69999999925494","","102","","2","1","arrowright","1","arrowleft","[0.85,0.15,0.325,0.675]","","",""
"sailing-trial","432","1511715","0.0-11.0-391.0","","","","false","","","","","","","","","","null","","675.8000000007451","","0","1","null","null","arrowup","[0.85,0.15,0.325,0.675]","","",""
"sailing-trial","433","1514682","0.0-11.0-392.0","","","","false","","","","","","","","","","79.30000000074506","","179.30000000074506","","0","1","arrowleft","0","arrowleft","[0.85,0.15,0.325,0.675]","","",""
"sailing-trial","434","1516225","0.0-11.0-393.0","","","","false","","","","","","","","","","null","","293","","1","0","null","null","arrowup","[0.85,0.15,0.325,0.675]","","",""
"sailing-trial","435","1519715","0.0-11.0-394.0","","","","false","","","","","","","","","","87.69999999925494","","321.8999999985099","","0","1","arrowleft","0","arrowleft","[0.85,0.15,0.325,0.675]","","",""
"sailing-trial","436","1523698","0.0-11.0-395.0","","","","false","","","","","","","","","","null","","2390.39999999851","","0","1","null","null","arrowup","[0.85,0.15,0.325,0.675]","","",""
"sailing-trial","437","1528765","0.0-11.0-396.0","","","","false","","","","","","","","","","124.40000000223517","","1549.8999999985099","","0","1","arrowleft","0","arrowleft","[0.85,0.15,0.325,0.675]","","",""
"sailing-trial","438","1531648","0.0-11.0-397.0","","","","false","","","","","","","","","","null","","1032.300000000745","","0","1","null","null","arrowup","[0.85,0.15,0.325,0.675]","","",""
"sailing-trial","439","1535165","0.0-11.0-398.0","","","","false","","","","","","","","","","639.6000000014901","","347.30000000074506","","0","1","arrowleft","0","arrowleft","[0.85,0.15,0.325,0.675]","","",""
"sailing-trial","440","1538215","0.0-11.0-399.0","","","","false","","","","","","","","","","null","","1082.199999999255","","3","1","null","null","arrowup","[0.85,0.15,0.325,0.675]","","",""
"instructions","441","1541827","0.0-12.0","","","","","","","","","","3611.199999999255","","","","","","","","","","","","","","","","[{""page_index"":0,""viewing_time"":3610.60000000149}]"
"survey-debrief","442","1575643","0.0-13.0","","","","","","","","","","33815","","","","","","","","","","","","","","{""difficulty"":""5"",""fun"":""2"",""clarity"":""5"",""strategy"":""fast hand typing/movements"",""feedback"":""no""}","",""
