"trial_type","trial_index","time_elapsed","internal_node_id","value","metadata","success","timeout","failed_images","failed_audio","failed_video","browser_interaction","low_quality","rt","stimulus","response","button_pressed","island_rt","island_response","boat_rt","boat_response","boat","reward","island_key","island","boat_key","reward_probabilities","responses","num_errors","view_history"
"pavlovia","0","5","0.0-0.0","","","","","","","","","","","","","","","","","","","","","","","","","",""
"call-function","1","5","0.0-1.0","","{""task_version"":""sailing_part1_v1"",""task_condition"":""good"",""boats"":[""B"",""A"",""C"",""D""],""boats_demo"":[""H"",""F"",""G"",""E""],""islands"":[""B"",""A""],""subject_id"":""15081"",""age"":""18"",""gender"":""Female""}","","","","","","","","","","","","","","","","","","","","","","","",""
"preload","2","2058","0.0-2.0","","","true","false","[]","[]","[]","[{""event"":""fullscreenenter"",""trial"":3,""time"":5507}]","false","","","","","","","","","","","","","","","","",""
"fullscreen","3","6467","0.0-3.0","","","true","","","","","","","","","","","","","","","","","","","","","","",""
"audio-keyboard-response","4","7800","0.0-4.0-0.0","","","","","","","","","","0","audio/beep_loop.wav"," ","","","","","","","","","","","","","",""
"audio-test","5","9328","0.0-4.0-1.0","","","","","","","","","","null","audio/turtle.mp3","","3","","","","","","","","","","","","",""
"audio-test","6","11526","0.0-4.0-2.0","","","","","","","","","","null","audio/shark.mp3","","2","","","","","","","","","","","","",""
"sailing-instructions","7","48386","0.0-5.0-0.0-0.0","","","","","","","","","","","","","","null","null","null","null","null","null","","","","","","",""
"sailing-trial","8","51767","0.0-5.0-0.0-1.0-0.0","","","","false","","","","","","","","","","2267","","null","","null","null","arrowleft","0","null","null","","",""
"sailing-trial","9","53947","0.0-5.0-0.0-1.0-1.0","","","","false","","","","","","","","","","1070.0000000000073","","null","","null","null","arrowright","1","null","null","","",""
"sailing-trial","10","57197","0.0-5.0-0.0-1.0-2.0","","","","false","","","","","","","","","","2136","","null","","null","null","arrowright","1","null","null","","",""
"sailing-instructions","11","106430","0.0-5.0-0.0-2.0","","","","","","","","","","","","","","null","null","null","null","0","null","","","","","","",""
"sailing-trial","12","111532","0.0-5.0-0.0-3.0-0.0","","","","false","","","","","","","","","","null","","1184.9999999999854","","2","1","null","null","arrowleft","[1,1,1,1]","","",""
"sailing-trial","13","116231","0.0-5.0-0.0-3.0-1.0","","","","false","","","","","","","","","","null","","1062","","3","1","null","null","arrowright","[1,1,1,1]","","",""
"sailing-trial","14","120287","0.0-5.0-0.0-3.0-2.0","","","","false","","","","","","","","","","null","","1141","","2","0","null","null","arrowleft","[0,0,0,0]","","",""
"sailing-instructions","15","127606","0.0-5.0-0.0-4.0","","","","","","","","","","","","","","null","null","null","null","null","null","","","","","","",""
"sailing-comprehension","16","149061","0.0-5.0-0.0-5.0","","","","","","","","","","15166.000000000044","","","","","","","","","","","","","","[""true"",""true"",""true"",""true""]","1",""
"sailing-instructions","17","183350","0.0-5.0-0.1-0.1","","","","","","","","","","","","","","null","null","null","null","null","null","","","","","","",""
"sailing-trial","18","185929","0.0-5.0-0.1-1.1-0.1","","","","false","","","","","","","","","","1469","","null","","null","null","arrowleft","0","null","null","","",""
"sailing-trial","19","188062","0.0-5.0-0.1-1.1-1.1","","","","false","","","","","","","","","","1025","","null","","null","null","arrowright","1","null","null","","",""
"sailing-trial","20","190779","0.0-5.0-0.1-1.1-2.1","","","","false","","","","","","","","","","1605","","null","","null","null","arrowright","1","null","null","","",""
"sailing-instructions","21","247065","0.0-5.0-0.1-2.1","","","","","","","","","","","","","","null","null","null","null","0","null","","","","","","",""
"sailing-trial","22","251328","0.0-5.0-0.1-3.1-0.1","","","","false","","","","","","","","","","null","","1462.000000000029","","2","1","null","null","arrowleft","[1,1,1,1]","","",""
"sailing-trial","23","254162","0.0-5.0-0.1-3.1-1.1","","","","false","","","","","","","","","","null","","244","","3","1","null","null","arrowright","[1,1,1,1]","","",""
"sailing-trial","24","257618","0.0-5.0-0.1-3.1-2.1","","","","false","","","","","","","","","","null","","1055","","2","0","null","null","arrowleft","[0,0,0,0]","","",""
"sailing-instructions","25","264788","0.0-5.0-0.1-4.1","","","","","","","","","","","","","","null","null","null","null","null","null","","","","","","",""
"sailing-comprehension","26","273086","0.0-5.0-0.1-5.1","","","","","","","","","","7279","","","","","","","","","","","","","","[""true"",""true"",""false"",""true""]","0",""
"sailing-instructions","27","338088","0.0-6.0-0.0-0.0","","","","","","","","","","","","","","null","null","null","null","null","null","","","","","","",""
"sailing-comprehension","28","348428","0.0-6.0-0.0-1.0","","","","","","","","","","9489","","","","","","","","","","","","","","[""true"",""false"",""true""]","0",""
"sailing-instructions","29","377668","0.0-7.0-0.0-0.0","","","","","","","","","","","","","","null","null","null","null","null","null","","","","","","",""
"sailing-trial","30","388598","0.0-7.0-0.0-1.0-0.0","","","","false","","","","","","","","","","null","","8939","","0","0","null","null","arrowup","[0.2,0.8,0.2,0.8]","","",""
"sailing-trial","31","402476","0.0-7.0-0.0-1.0-1.0","","","","false","","","","","","","","","","null","","7728","","1","1","null","null","arrowup","[0.2,0.8,0.2,0.8]","","",""
"sailing-trial","32","432655","0.0-7.0-0.0-1.0-2.0","","","","false","","","","","","","","","","null","","27255","","2","0","null","null","arrowup","[0.2,0.8,0.2,0.8]","","",""
"sailing-trial","33","436542","0.0-7.0-0.0-1.0-3.0","","","","false","","","","","","","","","","null","","1477.0000000000582","","3","1","null","null","arrowup","[0.2,0.8,0.2,0.8]","","",""
"sailing-comprehension","34","442164","0.0-7.0-0.0-2.0","","","","","","","","","","4582","","","","","","","","","","","","","","[""false""]","0",""
"sailing-instructions","35","453144","0.0-8.0-0.0-0.0","","","","","","","","","","","","","","null","null","null","null","null","null","","","","","","",""
"sailing-comprehension","36","456437","0.0-8.0-0.0-1.0","","","","","","","","","","2236.999999999942","","","","","","","","","","","","","","[""true""]","0",""
"sailing-instructions","37","477975","0.0-9.0-0.0-0.0","","","","","","","","","","","","","","null","null","null","null","null","null","","","","","","",""
"sailing-trial","38","484691","0.0-9.0-0.0-1.0-0.0","","","","false","","","","","","","","","","1811","","785","","1","1","arrowleft","0","arrowright","[0.2,0.8,0.2,0.8]","","",""
"sailing-trial","39","488570","0.0-9.0-0.0-1.0-1.0","","","","false","","","","","","","","","","829","","4.999999999941792","","0","0","arrowleft","0","arrowleft","[0.2,0.8,0.2,0.8]","","",""
"sailing-trial","40","492204","0.0-9.0-0.0-1.0-2.0","","","","false","","","","","","","","","","null","","1863","","0","0","null","null","arrowup","[0.2,0.8,0.2,0.8]","","",""
"sailing-trial","41","496925","0.0-9.0-0.0-1.0-3.0","","","","false","","","","","","","","","","690","","588","","3","1","arrowright","1","arrowright","[0.2,0.8,0.2,0.8]","","",""
"sailing-trial","42","500726","0.0-9.0-0.0-1.0-4.0","","","","false","","","","","","","","","","null","","1562","","3","1","null","null","arrowup","[0.2,0.8,0.2,0.8]","","",""
"sailing-trial","43","504958","0.0-9.0-0.0-1.0-5.0","","","","false","","","","","","","","","","837","","593","","3","1","arrowright","1","arrowright","[0.2,0.8,0.2,0.8]","","",""
"sailing-instructions","44","538590","0.0-10.0","","","","","","","","","","","","","","null","null","null","null","null","null","","","","","","",""
"sailing-trial","45","544540","0.0-11.0-0.0","","","","false","","","","","","","","","","1417.0000000001164","","491","","3","1","arrowright","1","arrowright","[0.85,0.15,0.325,0.675]","","",""
"sailing-trial","46","548809","0.0-11.0-1.0","","","","false","","","","","","","","","","null","","1246.0000000001164","","3","0","null","null","arrowup","[0.85,0.15,0.325,0.675]","","",""
"sailing-trial","47","558857","0.0-11.0-2.0","","","","false","","","","","","","","","","5562","","558","","0","1","arrowleft","0","arrowleft","[0.85,0.15,0.325,0.675]","","",""
"sailing-trial","48","561808","0.0-11.0-3.0","","","","false","","","","","","","","","","null","","1019","","1","1","null","null","arrowup","[0.85,0.15,0.325,0.675]","","",""
"sailing-trial","49","565454","0.0-11.0-4.0","","","","false","","","","","","","","","","528","","419.9999999998836","","3","0","arrowright","1","arrowright","[0.85,0.15,0.325,0.675]","","",""
"sailing-trial","50","568696","0.0-11.0-5.0","","","","false","","","","","","","","","","null","","1013","","2","0","null","null","arrowup","[0.85,0.15,0.325,0.675]","","",""
"sailing-trial","51","574373","0.0-11.0-6.0","","","","false","","","","","","","","","","768.0000000001164","","447","","0","1","arrowleft","0","arrowleft","[0.85,0.15,0.325,0.675]","","",""
"sailing-trial","52","577223","0.0-11.0-7.0","","","","false","","","","","","","","","","null","","1318","","3","0","null","null","arrowup","[0.85,0.15,0.325,0.675]","","",""
"sailing-trial","53","581006","0.0-11.0-8.0","","","","false","","","","","","","","","","618","","363","","2","0","arrowright","1","arrowleft","[0.85,0.15,0.325,0.675]","","",""
"sailing-trial","54","584273","0.0-11.0-9.0","","","","false","","","","","","","","","","null","","1173.9999999998836","","0","1","null","null","arrowup","[0.85,0.15,0.325,0.675]","","",""
"sailing-trial","55","588423","0.0-11.0-10.0","","","","false","","","","","","","","","","646","","352.0000000001164","","0","1","arrowleft","0","arrowleft","[0.85,0.15,0.325,0.675]","","",""
"sailing-trial","56","590834","0.0-11.0-11.0","","","","false","","","","","","","","","","null","","1023","","3","0","null","null","arrowup","[0.85,0.15,0.325,0.675]","","",""
"sailing-trial","57","593839","0.0-11.0-12.0","","","","false","","","","","","","","","","535","","122","","1","0","arrowleft","0","arrowright","[0.85,0.15,0.325,0.675]","","",""
"sailing-trial","58","596299","0.0-11.0-13.0","","","","false","","","","","","","","","","null","","1369","","3","0","null","null","arrowup","[0.85,0.15,0.325,0.675]","","",""
"sailing-trial","59","602173","0.0-11.0-14.0","","","","false","","","","","","","","","","522","","1575.0000000001164","","0","1","arrowleft","0","arrowleft","[0.85,0.15,0.325,0.675]","","",""
"sailing-trial","60","605434","0.0-11.0-15.0","","","","false","","","","","","","","","","null","","1704","","1","0","null","null","arrowup","[0.85,0.15,0.325,0.675]","","",""
"sailing-trial","61","610840","0.0-11.0-16.0","","","","false","","","","","","","","","","1905","","666.9999999998836","","0","1","arrowleft","0","arrowleft","[0.85,0.15,0.325,0.675]","","",""
"sailing-trial","62","614857","0.0-11.0-17.0","","","","false","","","","","","","","","","null","","1003.9999999998836","","1","0","null","null","arrowup","[0.85,0.15,0.325,0.675]","","",""
"sailing-trial","63","618913","0.0-11.0-18.0","","","","false","","","","","","","","","","559.9999999998836","","538","","2","0","arrowright","1","arrowleft","[0.15,0.85,0.675,0.325]","","",""
"sailing-trial","64","621989","0.0-11.0-19.0","","","","false","","","","","","","","","","null","","1138","","1","1","null","null","arrowup","[0.15,0.85,0.675,0.325]","","",""
"sailing-trial","65","626783","0.0-11.0-20.0","","","","false","","","","","","","","","","565","","729","","0","0","arrowleft","0","arrowleft","[0.15,0.85,0.675,0.325]","","",""
"sailing-trial","66","629770","0.0-11.0-21.0","","","","false","","","","","","","","","","null","","940","","1","1","null","null","arrowup","[0.15,0.85,0.675,0.325]","","",""
"sailing-trial","67","634090","0.0-11.0-22.0","","","","false","","","","","","","","","","510","","559.9999999998836","","1","1","arrowleft","0","arrowright","[0.15,0.85,0.675,0.325]","","",""
"sailing-trial","68","636310","0.0-11.0-23.0","","","","false","","","","","","","","","","null","","1086","","0","0","null","null","arrowup","[0.15,0.85,0.675,0.325]","","",""
"sailing-trial","69","639476","0.0-11.0-24.0","","","","false","","","","","","","","","","717.9999999998836","","3.9999999998835847","","1","0","arrowleft","0","arrowright","[0.15,0.85,0.675,0.325]","","",""
"sailing-trial","70","642321","0.0-11.0-25.0","","","","false","","","","","","","","","","null","","927","","1","1","null","null","arrowup","[0.15,0.85,0.675,0.325]","","",""
"sailing-trial","71","647107","0.0-11.0-26.0","","","","false","","","","","","","","","","1286","","173","","1","1","arrowleft","0","arrowright","[0.15,0.85,0.675,0.325]","","",""
"sailing-trial","72","650049","0.0-11.0-27.0","","","","false","","","","","","","","","","null","","1281.0000000001164","","2","0","null","null","arrowup","[0.15,0.85,0.675,0.325]","","",""
"sailing-trial","73","653672","0.0-11.0-28.0","","","","false","","","","","","","","","","659","","7","","1","1","arrowleft","0","arrowright","[0.15,0.85,0.675,0.325]","","",""
"sailing-trial","74","656972","0.0-11.0-29.0","","","","false","","","","","","","","","","null","","1228","","1","1","null","null","arrowup","[0.15,0.85,0.675,0.325]","","",""
"sailing-trial","75","661206","0.0-11.0-30.0","","","","false","","","","","","","","","","721","","119","","1","1","arrowleft","0","arrowright","[0.15,0.85,0.675,0.325]","","",""
"sailing-trial","76","665157","0.0-11.0-31.0","","","","false","","","","","","","","","","null","","991","","2","0","null","null","arrowup","[0.15,0.85,0.675,0.325]","","",""
"sailing-trial","77","669688","0.0-11.0-32.0","","","","false","","","","","","","","","","720","","489","","1","1","arrowleft","0","arrowright","[0.15,0.85,0.675,0.325]","","",""
"sailing-trial","78","672872","0.0-11.0-33.0","","","","false","","","","","","","","","","null","","1012","","3","1","null","null","arrowup","[0.15,0.85,0.675,0.325]","","",""
"sailing-trial","79","676450","0.0-11.0-34.0","","","","false","","","","","","","","","","495","","408","","3","0","arrowright","1","arrowright","[0.15,0.85,0.675,0.325]","","",""
"sailing-trial","80","679704","0.0-11.0-35.0","","","","false","","","","","","","","","","null","","1233","","2","1","null","null","arrowup","[0.15,0.85,0.675,0.325]","","",""
"sailing-trial","81","684539","0.0-11.0-36.0","","","","false","","","","","","","","","","1312.9999999998836","","309","","2","1","arrowright","1","arrowleft","[0.325,0.675,0.85,0.15]","","",""
"sailing-trial","82","687456","0.0-11.0-37.0","","","","false","","","","","","","","","","null","","996.0000000001164","","2","1","null","null","arrowup","[0.325,0.675,0.85,0.15]","","",""
"sailing-trial","83","691372","0.0-11.0-38.0","","","","false","","","","","","","","","","538","","356.9999999998836","","2","1","arrowright","1","arrowleft","[0.325,0.675,0.85,0.15]","","",""
"sailing-trial","84","694755","0.0-11.0-39.0","","","","false","","","","","","","","","","null","","1263.0000000001164","","1","1","null","null","arrowup","[0.325,0.675,0.85,0.15]","","",""
"sailing-trial","85","698771","0.0-11.0-40.0","","","","false","","","","","","","","","","1217.9999999998836","","247","","2","0","arrowright","1","arrowleft","[0.325,0.675,0.85,0.15]","","",""
"sailing-trial","86","701688","0.0-11.0-41.0","","","","false","","","","","","","","","","null","","994","","0","1","null","null","arrowup","[0.325,0.675,0.85,0.15]","","",""
"sailing-trial","87","705404","0.0-11.0-42.0","","","","false","","","","","","","","","","870","","88","","1","1","arrowleft","0","arrowright","[0.325,0.675,0.85,0.15]","","",""
"sailing-trial","88","708374","0.0-11.0-43.0","","","","false","","","","","","","","","","null","","1581","","0","0","null","null","arrowup","[0.325,0.675,0.85,0.15]","","",""
"sailing-trial","89","714416","0.0-11.0-44.0","","","","false","","","","","","","","","","2112","","1410","","0","0","arrowleft","0","arrowleft","[0.325,0.675,0.85,0.15]","","",""
"sailing-trial","90","717835","0.0-11.0-45.0","","","","false","","","","","","","","","","null","","1187.9999999998836","","0","0","null","null","arrowup","[0.325,0.675,0.85,0.15]","","",""
"sailing-trial","91","722221","0.0-11.0-46.0","","","","false","","","","","","","","","","615","","1367","","2","0","arrowright","1","arrowleft","[0.325,0.675,0.85,0.15]","","",""
"sailing-trial","92","724275","0.0-11.0-47.0","","","","false","","","","","","","","","","null","","932","","2","0","null","null","arrowup","[0.325,0.675,0.85,0.15]","","",""
"sailing-trial","93","727866","0.0-11.0-48.0","","","","false","","","","","","","","","","745","","188.00000000011642","","3","0","arrowright","1","arrowright","[0.325,0.675,0.85,0.15]","","",""
"sailing-trial","94","731404","0.0-11.0-49.0","","","","false","","","","","","","","","","null","","1506","","0","1","null","null","arrowup","[0.325,0.675,0.85,0.15]","","",""
"sailing-trial","95","734337","0.0-11.0-50.0","","","","false","","","","","","","","","","431.9999999998836","","57","","0","0","arrowleft","0","arrowleft","[0.325,0.675,0.85,0.15]","","",""
"sailing-trial","96","737034","0.0-11.0-51.0","","","","false","","","","","","","","","","null","","948.9999999998836","","3","0","null","null","arrowup","[0.325,0.675,0.85,0.15]","","",""
"sailing-trial","97","741154","0.0-11.0-52.0","","","","false","","","","","","","","","","508","","215","","1","1","arrowleft","0","arrowright","[0.15,0.85,0.675,0.325]","","",""
"sailing-trial","98","744054","0.0-11.0-53.0","","","","false","","","","","","","","","","null","","1000","","1","1","null","null","arrowup","[0.15,0.85,0.675,0.325]","","",""
"sailing-trial","99","748388","0.0-11.0-54.0","","","","false","","","","","","","","","","460.9999999998836","","547","","1","1","arrowleft","0","arrowright","[0.15,0.85,0.675,0.325]","","",""
"sailing-trial","100","751448","0.0-11.0-55.0","","","","false","","","","","","","","","","null","","985","","2","0","null","null","arrowup","[0.15,0.85,0.675,0.325]","","",""
"sailing-trial","101","755568","0.0-11.0-56.0","","","","false","","","","","","","","","","445","","544","","1","1","arrowleft","0","arrowright","[0.15,0.85,0.675,0.325]","","",""
"sailing-trial","102","759619","0.0-11.0-57.0","","","","false","","","","","","","","","","null","","2024","","3","0","null","null","arrowup","[0.15,0.85,0.675,0.325]","","",""
"sailing-trial","103","763602","0.0-11.0-58.0","","","","false","","","","","","","","","","840","","22","","1","1","arrowleft","0","arrowright","[0.15,0.85,0.675,0.325]","","",""
"sailing-trial","104","767135","0.0-11.0-59.0","","","","false","","","","","","","","","","null","","1540","","2","1","null","null","arrowup","[0.15,0.85,0.675,0.325]","","",""
"sailing-trial","105","770888","0.0-11.0-60.0","","","","false","","","","","","","","","","470","","214","","1","1","arrowleft","0","arrowright","[0.15,0.85,0.675,0.325]","","",""
"sailing-trial","106","775438","0.0-11.0-61.0","","","","false","","","","","","","","","","null","","2419","","1","1","null","null","arrowup","[0.15,0.85,0.675,0.325]","","",""
"sailing-trial","107","780752","0.0-11.0-62.0","","","","false","","","","","","","","","","2030","","2","","1","1","arrowleft","0","arrowright","[0.15,0.85,0.675,0.325]","","",""
"sailing-trial","108","784224","0.0-11.0-63.0","","","","false","","","","","","","","","","null","","1605.0000000001164","","3","0","null","null","arrowup","[0.15,0.85,0.675,0.325]","","",""
"sailing-trial","109","787869","0.0-11.0-64.0","","","","false","","","","","","","","","","605.0000000001164","","285.9999999998836","","1","1","arrowleft","0","arrowright","[0.15,0.85,0.675,0.325]","","",""
"sailing-trial","110","790960","0.0-11.0-65.0","","","","false","","","","","","","","","","null","","1655","","3","0","null","null","arrowup","[0.15,0.85,0.675,0.325]","","",""
"sailing-trial","111","795186","0.0-11.0-66.0","","","","false","","","","","","","","","","1063","","73","","1","1","arrowleft","0","arrowright","[0.15,0.85,0.675,0.325]","","",""
"sailing-trial","112","798553","0.0-11.0-67.0","","","","false","","","","","","","","","","null","","897","","2","1","null","null","arrowup","[0.15,0.85,0.675,0.325]","","",""
"sailing-trial","113","802686","0.0-11.0-68.0","","","","false","","","","","","","","","","814","","569","","1","1","arrowleft","0","arrowright","[0.15,0.85,0.675,0.325]","","",""
"sailing-trial","114","806053","0.0-11.0-69.0","","","","false","","","","","","","","","","null","","851","","2","1","null","null","arrowup","[0.15,0.85,0.675,0.325]","","",""
"sailing-trial","115","809836","0.0-11.0-70.0","","","","false","","","","","","","","","","584.9999999998836","","380","","1","1","arrowleft","0","arrowright","[0.15,0.85,0.675,0.325]","","",""
"sailing-trial","116","812902","0.0-11.0-71.0","","","","false","","","","","","","","","","null","","956","","0","1","null","null","arrowup","[0.15,0.85,0.675,0.325]","","",""
"sailing-trial","117","817070","0.0-11.0-72.0","","","","false","","","","","","","","","","739","","59.999999999883585","","1","1","arrowleft","0","arrowright","[0.15,0.85,0.675,0.325]","","",""
"sailing-trial","118","822220","0.0-11.0-73.0","","","","false","","","","","","","","","","null","","2129","","3","0","null","null","arrowup","[0.15,0.85,0.675,0.325]","","",""
"sailing-trial","119","827186","0.0-11.0-74.0","","","","false","","","","","","","","","","536.0000000001164","","635","","1","1","arrowleft","0","arrowright","[0.325,0.675,0.85,0.15]","","",""
"sailing-trial","120","830946","0.0-11.0-75.0","","","","false","","","","","","","","","","null","","1639","","3","0","null","null","arrowup","[0.325,0.675,0.85,0.15]","","",""
"sailing-trial","121","835383","0.0-11.0-76.0","","","","false","","","","","","","","","","790.0000000001164","","310","","1","1","arrowleft","0","arrowright","[0.325,0.675,0.85,0.15]","","",""
"sailing-trial","122","839636","0.0-11.0-77.0","","","","false","","","","","","","","","","null","","1731","","1","1","null","null","arrowup","[0.325,0.675,0.85,0.15]","","",""
"sailing-trial","123","844302","0.0-11.0-78.0","","","","false","","","","","","","","","","777.9999999998836","","639","","1","1","arrowleft","0","arrowright","[0.325,0.675,0.85,0.15]","","",""
"sailing-trial","124","847738","0.0-11.0-79.0","","","","false","","","","","","","","","","null","","1645","","3","0","null","null","arrowup","[0.325,0.675,0.85,0.15]","","",""
"sailing-trial","125","851436","0.0-11.0-80.0","","","","false","","","","","","","","","","534.0000000001164","","230","","1","1","arrowleft","0","arrowright","[0.325,0.675,0.85,0.15]","","",""
"sailing-trial","126","854054","0.0-11.0-81.0","","","","false","","","","","","","","","","null","","1166.0000000001164","","1","0","null","null","arrowup","[0.325,0.675,0.85,0.15]","","",""
"sailing-trial","127","857622","0.0-11.0-82.0","","","","false","","","","","","","","","","620","","147","","1","0","arrowleft","0","arrowright","[0.325,0.675,0.85,0.15]","","",""
"sailing-trial","128","860327","0.0-11.0-83.0","","","","false","","","","","","","","","","null","","1421","","3","0","null","null","arrowup","[0.325,0.675,0.85,0.15]","","",""
"sailing-trial","129","863582","0.0-11.0-84.0","","","","false","","","","","","","","","","460","","338","","0","0","arrowleft","0","arrowleft","[0.325,0.675,0.85,0.15]","","",""
"sailing-trial","130","866022","0.0-11.0-85.0","","","","false","","","","","","","","","","null","","957","","0","0","null","null","arrowup","[0.325,0.675,0.85,0.15]","","",""
"sailing-trial","131","870334","0.0-11.0-86.0","","","","false","","","","","","","","","","485","","795","","2","1","arrowright","1","arrowleft","[0.325,0.675,0.85,0.15]","","",""
"sailing-trial","132","873457","0.0-11.0-87.0","","","","false","","","","","","","","","","null","","1370.9999999998836","","0","0","null","null","arrowup","[0.325,0.675,0.85,0.15]","","",""
"sailing-trial","133","877316","0.0-11.0-88.0","","","","false","","","","","","","","","","442.9999999998836","","356","","2","1","arrowright","1","arrowleft","[0.325,0.675,0.85,0.15]","","",""
"sailing-trial","134","880205","0.0-11.0-89.0","","","","false","","","","","","","","","","null","","1171","","3","0","null","null","arrowup","[0.325,0.675,0.85,0.15]","","",""
"sailing-trial","135","884568","0.0-11.0-90.0","","","","false","","","","","","","","","","807","","421","","2","1","arrowright","1","arrowleft","[0.15,0.85,0.675,0.325]","","",""
"sailing-trial","136","887177","0.0-11.0-91.0","","","","false","","","","","","","","","","null","","1262","","1","0","null","null","arrowup","[0.15,0.85,0.675,0.325]","","",""
"sailing-trial","137","891244","0.0-11.0-92.0","","","","false","","","","","","","","","","459.0000000001164","","81","","2","0","arrowright","1","arrowleft","[0.15,0.85,0.675,0.325]","","",""
"sailing-trial","138","893851","0.0-11.0-93.0","","","","false","","","","","","","","","","null","","1096","","2","0","null","null","arrowup","[0.15,0.85,0.675,0.325]","","",""
"sailing-trial","139","897861","0.0-11.0-94.0","","","","false","","","","","","","","","","878.9999999998836","","335","","3","0","arrowright","1","arrowright","[0.15,0.85,0.675,0.325]","","",""
"sailing-trial","140","900294","0.0-11.0-95.0","","","","false","","","","","","","","","","null","","854.9999999998836","","3","0","null","null","arrowup","[0.15,0.85,0.675,0.325]","","",""
"sailing-trial","141","903150","0.0-11.0-96.0","","","","false","","","","","","","","","","491","","24","","0","0","arrowleft","0","arrowleft","[0.15,0.85,0.675,0.325]","","",""
"sailing-trial","142","906601","0.0-11.0-97.0","","","","false","","","","","","","","","","null","","887","","2","1","null","null","arrowup","[0.15,0.85,0.675,0.325]","","",""
"sailing-trial","143","911882","0.0-11.0-98.0","","","","false","","","","","","","","","","469","","2502","","0","0","arrowleft","0","arrowleft","[0.15,0.85,0.675,0.325]","","",""
"sailing-trial","144","914201","0.0-11.0-99.0","","","","false","","","","","","","","","","null","","846","","1","0","null","null","arrowup","[0.15,0.85,0.675,0.325]","","",""
"sailing-trial","145","918217","0.0-11.0-100.0","","","","false","","","","","","","","","","412.9999999998836","","504","","2","1","arrowright","1","arrowleft","[0.15,0.85,0.675,0.325]","","",""
"sailing-trial","146","920415","0.0-11.0-101.0","","","","false","","","","","","","","","","null","","699","","0","0","null","null","arrowup","[0.15,0.85,0.675,0.325]","","",""
"sailing-trial","147","923417","0.0-11.0-102.0","","","","false","","","","","","","","","","489.0000000001164","","30","","2","0","arrowright","1","arrowleft","[0.15,0.85,0.675,0.325]","","",""
"sailing-trial","148","926700","0.0-11.0-103.0","","","","false","","","","","","","","","","null","","1665.0000000001164","","1","1","null","null","arrowup","[0.15,0.85,0.675,0.325]","","",""
"sailing-trial","149","930131","0.0-11.0-104.0","","","","false","","","","","","","","","","550.0000000001164","","135.00000000011642","","3","0","arrowright","1","arrowright","[0.15,0.85,0.675,0.325]","","",""
"sailing-trial","150","933267","0.0-11.0-105.0","","","","false","","","","","","","","","","null","","1094.9999999998836","","3","1","null","null","arrowup","[0.15,0.85,0.675,0.325]","","",""
"sailing-trial","151","936753","0.0-11.0-106.0","","","","false","","","","","","","","","","534","","247","","3","0","arrowright","1","arrowright","[0.15,0.85,0.675,0.325]","","",""
"sailing-trial","152","939804","0.0-11.0-107.0","","","","false","","","","","","","","","","null","","1644","","3","0","null","null","arrowup","[0.15,0.85,0.675,0.325]","","",""
"sailing-trial","153","943026","0.0-11.0-108.0","","","","false","","","","","","","","","","478","","193.99999999988358","","1","0","arrowleft","0","arrowright","[0.15,0.85,0.675,0.325]","","",""
"sailing-trial","154","945614","0.0-11.0-109.0","","","","false","","","","","","","","","","null","","1041","","3","0","null","null","arrowup","[0.15,0.85,0.675,0.325]","","",""
"sailing-trial","155","948915","0.0-11.0-110.0","","","","false","","","","","","","","","","461","","385","","0","0","arrowleft","0","arrowleft","[0.325,0.675,0.85,0.15]","","",""
"sailing-trial","156","951247","0.0-11.0-111.0","","","","false","","","","","","","","","","null","","880","","0","0","null","null","arrowup","[0.325,0.675,0.85,0.15]","","",""
"sailing-trial","157","955383","0.0-11.0-112.0","","","","false","","","","","","","","","","677.0000000001164","","243","","1","1","arrowleft","0","arrowright","[0.325,0.675,0.85,0.15]","","",""
"sailing-trial","158","958150","0.0-11.0-113.0","","","","false","","","","","","","","","","null","","1512","","3","0","null","null","arrowup","[0.325,0.675,0.85,0.15]","","",""
"sailing-trial","159","962610","0.0-11.0-114.0","","","","false","","","","","","","","","","401","","1673","","0","0","arrowleft","0","arrowleft","[0.325,0.675,0.85,0.15]","","",""
"sailing-trial","160","964685","0.0-11.0-115.0","","","","false","","","","","","","","","","null","","995","","1","0","null","null","arrowup","[0.325,0.675,0.85,0.15]","","",""
"sailing-trial","161","967722","0.0-11.0-116.0","","","","false","","","","","","","","","","514","","113","","0","0","arrowleft","0","arrowleft","[0.325,0.675,0.85,0.15]","","",""
"sailing-trial","162","970599","0.0-11.0-117.0","","","","false","","","","","","","","","","null","","916","","3","1","null","null","arrowup","[0.325,0.675,0.85,0.15]","","",""
"sailing-trial","163","974210","0.0-11.0-118.0","","","","false","","","","","","","","","","923","","220.00000000011642","","3","0","arrowright","1","arrowright","[0.325,0.675,0.85,0.15]","","",""
"sailing-trial","164","977734","0.0-11.0-119.0","","","","false","","","","","","","","","","null","","1533.9999999998836","","2","1","null","null","arrowup","[0.325,0.675,0.85,0.15]","","",""
"sailing-trial","165","981817","0.0-11.0-120.0","","","","false","","","","","","","","","","973.0000000001164","","19.999999999883585","","2","1","arrowright","1","arrowleft","[0.325,0.675,0.85,0.15]","","",""
"sailing-trial","166","987550","0.0-11.0-121.0","","","","false","","","","","","","","","","null","","3727","","2","1","null","null","arrowup","[0.325,0.675,0.85,0.15]","","",""
"sailing-trial","167","992166","0.0-11.0-122.0","","","","false","","","","","","","","","","965","","543","","1","1","arrowleft","0","arrowright","[0.325,0.675,0.85,0.15]","","",""
"sailing-trial","168","995282","0.0-11.0-123.0","","","","false","","","","","","","","","","null","","1149","","0","1","null","null","arrowup","[0.325,0.675,0.85,0.15]","","",""
"sailing-trial","169","998967","0.0-11.0-124.0","","","","false","","","","","","","","","","687","","63.000000000116415","","0","1","arrowleft","0","arrowleft","[0.325,0.675,0.85,0.15]","","",""
"sailing-trial","170","1002478","0.0-11.0-125.0","","","","false","","","","","","","","","","null","","1444","","0","0","null","null","arrowup","[0.325,0.675,0.85,0.15]","","",""
"sailing-trial","171","1006265","0.0-11.0-126.0","","","","false","","","","","","","","","","603","","322","","3","0","arrowright","1","arrowright","[0.15,0.85,0.675,0.325]","","",""
"sailing-trial","172","1010566","0.0-11.0-127.0","","","","false","","","","","","","","","","null","","2308","","2","1","null","null","arrowup","[0.15,0.85,0.675,0.325]","","",""
"sailing-trial","173","1014757","0.0-11.0-128.0","","","","false","","","","","","","","","","848","","622.0000000001164","","0","0","arrowleft","0","arrowleft","[0.15,0.85,0.675,0.325]","","",""
"sailing-trial","174","1018099","0.0-11.0-129.0","","","","false","","","","","","","","","","null","","1295.9999999998836","","2","1","null","null","arrowup","[0.15,0.85,0.675,0.325]","","",""
"sailing-trial","175","1021597","0.0-11.0-130.0","","","","false","","","","","","","","","","546","","612","","3","0","arrowright","1","arrowright","[0.15,0.85,0.675,0.325]","","",""
"sailing-trial","176","1027613","0.0-11.0-131.0","","","","false","","","","","","","","","","null","","3936.0000000001164","","2","1","null","null","arrowup","[0.15,0.85,0.675,0.325]","","",""
"sailing-trial","177","1032632","0.0-11.0-132.0","","","","false","","","","","","","","","","1947.0000000001164","","554.0000000001164","","0","0","arrowleft","0","arrowleft","[0.15,0.85,0.675,0.325]","","",""
"sailing-trial","178","1034656","0.0-11.0-133.0","","","","false","","","","","","","","","","null","","937.0000000001164","","0","0","null","null","arrowup","[0.15,0.85,0.675,0.325]","","",""
"sailing-trial","179","1037756","0.0-11.0-134.0","","","","false","","","","","","","","","","432","","195.00000000023283","","2","0","arrowright","1","arrowleft","[0.15,0.85,0.675,0.325]","","",""
"sailing-trial","180","1040235","0.0-11.0-135.0","","","","false","","","","","","","","","","null","","1125.9999999998836","","0","0","null","null","arrowup","[0.15,0.85,0.675,0.325]","","",""
"sailing-trial","181","1043679","0.0-11.0-136.0","","","","false","","","","","","","","","","608.9999999998836","","567","","0","0","arrowleft","0","arrowleft","[0.15,0.85,0.675,0.325]","","",""
"sailing-trial","182","1045799","0.0-11.0-137.0","","","","false","","","","","","","","","","null","","1109.9999999998836","","2","0","null","null","arrowup","[0.15,0.85,0.675,0.325]","","",""
"sailing-trial","183","1053532","0.0-11.0-138.0","","","","false","","","","","","","","","","3822.0000000001164","","240","","2","1","arrowright","1","arrowleft","[0.15,0.85,0.675,0.325]","","",""
"sailing-trial","184","1056999","0.0-11.0-139.0","","","","false","","","","","","","","","","null","","1294","","3","1","null","null","arrowup","[0.15,0.85,0.675,0.325]","","",""
"sailing-trial","185","1060947","0.0-11.0-140.0","","","","false","","","","","","","","","","613","","299","","3","1","arrowright","1","arrowright","[0.15,0.85,0.675,0.325]","","",""
"sailing-trial","186","1063748","0.0-11.0-141.0","","","","false","","","","","","","","","","null","","1046","","3","1","null","null","arrowup","[0.15,0.85,0.675,0.325]","","",""
"sailing-trial","187","1067848","0.0-11.0-142.0","","","","false","","","","","","","","","","738","","352","","3","1","arrowright","1","arrowright","[0.675,0.325,0.15,0.85]","","",""
"sailing-trial","188","1072831","0.0-11.0-143.0","","","","false","","","","","","","","","","null","","3208.999999999767","","3","1","null","null","arrowup","[0.675,0.325,0.15,0.85]","","",""
"sailing-trial","189","1076773","0.0-11.0-144.0","","","","false","","","","","","","","","","1067","","171.00000000023283","","3","0","arrowright","1","arrowright","[0.675,0.325,0.15,0.85]","","",""
"sailing-trial","190","1079731","0.0-11.0-145.0","","","","false","","","","","","","","","","null","","986","","0","1","null","null","arrowup","[0.675,0.325,0.15,0.85]","","",""
"sailing-trial","191","1083981","0.0-11.0-146.0","","","","false","","","","","","","","","","442","","512","","0","1","arrowleft","0","arrowleft","[0.675,0.325,0.15,0.85]","","",""
"sailing-trial","192","1086981","0.0-11.0-147.0","","","","false","","","","[{""event"":""fullscreenenter"",""trial"":3,""time"":5507},{""event"":""fullscreenexit"",""trial"":193,""time"":1088933}]","false","","","","","null","","1560.9999999997672","","2","0","null","null","arrowup","[0.675,0.325,0.15,0.85]","","",""
"sailing-trial","193","1097049","0.0-11.0-148.0","","","","false","","","","","","","","","","2652","","3263","","1","0","arrowleft","0","arrowright","[0.675,0.325,0.15,0.85]","","",""
"sailing-trial","194","1103716","0.0-11.0-149.0","","","","false","","","","","","","","","","null","","3656","","2","0","null","null","arrowup","[0.675,0.325,0.15,0.85]","","",""
"sailing-trial","195","1108263","0.0-11.0-150.0","","","","false","","","","","","","","","","1236.0000000002328","","623","","1","0","arrowleft","0","arrowright","[0.675,0.325,0.15,0.85]","","",""
"sailing-trial","196","1110928","0.0-11.0-151.0","","","","false","","","","","","","","","","null","","1055.0000000002328","","1","0","null","null","arrowup","[0.675,0.325,0.15,0.85]","","",""
"sailing-trial","197","1116314","0.0-11.0-152.0","","","","false","","","","","","","","","","855","","243","","3","1","arrowright","1","arrowright","[0.675,0.325,0.15,0.85]","","",""
"sailing-trial","198","1119324","0.0-11.0-153.0","","","","false","","","","","","","","","","null","","1435","","2","0","null","null","arrowup","[0.675,0.325,0.15,0.85]","","",""
"sailing-trial","199","1123297","0.0-11.0-154.0","","","","false","","","","","","","","","","882","","6","","3","1","arrowright","1","arrowright","[0.675,0.325,0.15,0.85]","","",""
"sailing-trial","200","1126363","0.0-11.0-155.0","","","","false","","","","","","","","","","null","","1032","","0","1","null","null","arrowup","[0.675,0.325,0.15,0.85]","","",""
"sailing-trial","201","1130548","0.0-11.0-156.0","","","","false","","","","","","","","","","685","","102","","3","1","arrowright","1","arrowright","[0.675,0.325,0.15,0.85]","","",""
"sailing-trial","202","1136513","0.0-11.0-157.0","","","","false","","","","","","","","","","null","","2728","","0","1","null","null","arrowup","[0.675,0.325,0.15,0.85]","","",""
"sailing-trial","203","1144492","0.0-11.0-158.0","","","","false","","","","","","","","","","1835","","1912","","0","0","arrowleft","0","arrowleft","[0.675,0.325,0.15,0.85]","","",""
"sailing-trial","204","1152381","0.0-11.0-159.0","","","","false","","","","","","","","","","null","","4872","","3","0","null","null","arrowup","[0.675,0.325,0.15,0.85]","","",""
"sailing-trial","205","1162231","0.0-11.0-160.0","","","","false","","","","","","","","","","3436.000000000233","","879","","3","1","arrowright","1","arrowright","[0.85,0.15,0.325,0.675]","","",""
"sailing-trial","206","1170147","0.0-11.0-161.0","","","","false","","","","","","","","","","null","","4890.999999999767","","2","0","null","null","arrowup","[0.85,0.15,0.325,0.675]","","",""
"sailing-trial","207","1176564","0.0-11.0-162.0","","","","false","","","","","","","","","","1639","","612","","3","0","arrowright","1","arrowright","[0.85,0.15,0.325,0.675]","","",""
"sailing-trial","208","1180980","0.0-11.0-163.0","","","","false","","","","","","","","","","null","","1573","","0","1","null","null","arrowup","[0.85,0.15,0.325,0.675]","","",""
"sailing-trial","209","1187296","0.0-11.0-164.0","","","","false","","","","","","","","","","1778","","225","","0","1","arrowleft","0","arrowleft","[0.85,0.15,0.325,0.675]","","",""
"sailing-trial","210","1190424","0.0-11.0-165.0","","","","false","","","","","","","","","","null","","1538","","2","0","null","null","arrowup","[0.85,0.15,0.325,0.675]","","",""
"sailing-trial","211","1195403","0.0-11.0-166.0","","","","false","","","","","","","","","","1157","","669","","2","1","arrowright","1","arrowleft","[0.85,0.15,0.325,0.675]","","",""
"sailing-trial","212","1198126","0.0-11.0-167.0","","","","false","","","","","","","","","","null","","818","","2","1","null","null","arrowup","[0.85,0.15,0.325,0.675]","","",""
"sailing-trial","213","1202161","0.0-11.0-168.0","","","","false","","","","","","","","","","965","","42","","2","0","arrowright","1","arrowleft","[0.85,0.15,0.325,0.675]","","",""
"sailing-trial","214","1205336","0.0-11.0-169.0","","","","false","","","","","","","","","","null","","1208.9999999997672","","0","1","null","null","arrowup","[0.85,0.15,0.325,0.675]","","",""
"sailing-trial","215","1209773","0.0-11.0-170.0","","","","false","","","","","","","","","","882","","374","","0","1","arrowleft","0","arrowleft","[0.85,0.15,0.325,0.675]","","",""
"sailing-trial","216","1212909","0.0-11.0-171.0","","","","false","","","","","","","","","","null","","866","","0","1","null","null","arrowup","[0.85,0.15,0.325,0.675]","","",""
"sailing-trial","217","1216022","0.0-11.0-172.0","","","","false","","","","","","","","","","622","","252","","1","0","arrowleft","0","arrowright","[0.85,0.15,0.325,0.675]","","",""
"sailing-trial","218","1219110","0.0-11.0-173.0","","","","false","","","","","","","","","","null","","828.0000000002328","","2","1","null","null","arrowup","[0.85,0.15,0.325,0.675]","","",""
"sailing-trial","219","1224164","0.0-11.0-174.0","","","","false","","","","","","","","","","655.9999999997672","","240","","1","0","arrowleft","0","arrowright","[0.85,0.15,0.325,0.675]","","",""
"sailing-trial","220","1229116","0.0-11.0-175.0","","","","false","","","","","","","","","","null","","1911","","0","1","null","null","arrowup","[0.85,0.15,0.325,0.675]","","",""
"sailing-trial","221","1236167","0.0-11.0-176.0","","","","false","","","","","","","","","","1633.0000000002328","","1235","","2","0","arrowright","1","arrowleft","[0.85,0.15,0.325,0.675]","","",""
"sailing-trial","222","1245602","0.0-11.0-177.0","","","","false","","","","","","","","","","null","","5860","","3","1","null","null","arrowup","[0.85,0.15,0.325,0.675]","","",""
"sailing-trial","223","1250719","0.0-11.0-178.0","","","","false","","","","","","","","","","1703","","569","","1","0","arrowleft","0","arrowright","[0.85,0.15,0.325,0.675]","","",""
"sailing-trial","224","1253970","0.0-11.0-179.0","","","","false","","","","","","","","","","null","","1252","","0","1","null","null","arrowup","[0.85,0.15,0.325,0.675]","","",""
"sailing-trial","225","1257243","0.0-11.0-180.0","","","","false","","","","","","","","","","560.0000000002328","","2","","0","0","arrowleft","0","arrowleft","[0.675,0.325,0.15,0.85]","","",""
"sailing-trial","226","1261668","0.0-11.0-181.0","","","","false","","","","","","","","","","null","","1416","","2","0","null","null","arrowup","[0.675,0.325,0.15,0.85]","","",""
"sailing-trial","227","1271702","0.0-11.0-182.0","","","","false","","","","","","","","","","5568","","852","","3","1","arrowright","1","arrowright","[0.675,0.325,0.15,0.85]","","",""
"sailing-trial","228","1279138","0.0-11.0-183.0","","","","false","","","","","","","","","","null","","4421","","1","0","null","null","arrowup","[0.675,0.325,0.15,0.85]","","",""
"sailing-trial","229","1282558","0.0-11.0-184.0","","","","false","","","","","","","","","","360.99999999976717","","763","","0","0","arrowleft","0","arrowleft","[0.675,0.325,0.15,0.85]","","",""
"sailing-trial","230","1288936","0.0-11.0-185.0","","","","false","","","","","","","","","","null","","3362","","1","0","null","null","arrowup","[0.675,0.325,0.15,0.85]","","",""
"sailing-trial","231","1295404","0.0-11.0-186.0","","","","false","","","","","","","","","","2663","","587.9999999997672","","3","1","arrowright","1","arrowright","[0.675,0.325,0.15,0.85]","","",""
"sailing-trial","232","1299004","0.0-11.0-187.0","","","","false","","","","","","","","","","null","","1383","","3","1","null","null","arrowup","[0.675,0.325,0.15,0.85]","","",""
"sailing-trial","233","1308719","0.0-11.0-188.0","","","","false","","","","","","","","","","4418.999999999767","","954.9999999997672","","3","1","arrowright","1","arrowright","[0.675,0.325,0.15,0.85]","","",""
"sailing-trial","234","1315237","0.0-11.0-189.0","","","","false","","","","","","","","","","null","","2917","","1","1","null","null","arrowup","[0.675,0.325,0.15,0.85]","","",""
"sailing-trial","235","1321402","0.0-11.0-190.0","","","","false","","","","","","","","","","2938.000000000233","","152","","3","1","arrowright","1","arrowright","[0.675,0.325,0.15,0.85]","","",""
"sailing-trial","236","1326603","0.0-11.0-191.0","","","","false","","","","","","","","","","null","","2589","","0","1","null","null","arrowup","[0.675,0.325,0.15,0.85]","","",""
"sailing-trial","237","1329986","0.0-11.0-192.0","","","","false","","","","","","","","","","591","","409","","0","0","arrowleft","0","arrowleft","[0.675,0.325,0.15,0.85]","","",""
"sailing-trial","238","1337419","0.0-11.0-193.0","","","","false","","","","","","","","","","null","","4524","","3","1","null","null","arrowup","[0.675,0.325,0.15,0.85]","","",""
"sailing-trial","239","1342986","0.0-11.0-194.0","","","","false","","","","","","","","","","888","","1773","","3","1","arrowright","1","arrowright","[0.675,0.325,0.15,0.85]","","",""
"sailing-trial","240","1347285","0.0-11.0-195.0","","","","false","","","","","","","","","","null","","2405","","3","1","null","null","arrowup","[0.675,0.325,0.15,0.85]","","",""
"sailing-trial","241","1357870","0.0-11.0-196.0","","","","false","","","","","","","","","","6150","","404","","3","1","arrowright","1","arrowright","[0.85,0.15,0.325,0.675]","","",""
"sailing-trial","242","1362052","0.0-11.0-197.0","","","","false","","","","","","","","","","null","","1008.0000000002328","","0","1","null","null","arrowup","[0.85,0.15,0.325,0.675]","","",""
"sailing-trial","243","1367995","0.0-11.0-198.0","","","","false","","","","","","","","","","2412.000000000233","","234","","1","0","arrowleft","0","arrowright","[0.85,0.15,0.325,0.675]","","",""
"sailing-trial","244","1370620","0.0-11.0-199.0","","","","false","","","","","","","","","","null","","972","","1","1","null","null","arrowup","[0.85,0.15,0.325,0.675]","","",""
"sailing-trial","245","1374152","0.0-11.0-200.0","","","","false","","","","","","","","","","444","","73","","3","1","arrowright","1","arrowright","[0.85,0.15,0.325,0.675]","","",""
"sailing-trial","246","1376656","0.0-11.0-201.0","","","","false","","","","","","","","","","null","","1082","","3","0","null","null","arrowup","[0.85,0.15,0.325,0.675]","","",""
"sailing-trial","247","1380145","0.0-11.0-202.0","","","","false","","","","","","","","","","546","","632","","1","0","arrowleft","0","arrowright","[0.85,0.15,0.325,0.675]","","",""
"sailing-trial","248","1384953","0.0-11.0-203.0","","","","false","","","","","","","","","","null","","1499","","0","1","null","null","arrowup","[0.85,0.15,0.325,0.675]","","",""
"sailing-trial","249","1392170","0.0-11.0-204.0","","","","false","","","","","","","","","","2844","","204.99999999976717","","3","0","arrowright","1","arrowright","[0.85,0.15,0.325,0.675]","","",""
"sailing-trial","250","1396329","0.0-11.0-205.0","","","","false","","","","","","","","","","null","","2098","","3","0","null","null","arrowup","[0.85,0.15,0.325,0.675]","","",""
"sailing-trial","251","1400469","0.0-11.0-206.0","","","","false","","","","","","","","","","519","","430","","0","1","arrowleft","0","arrowleft","[0.85,0.15,0.325,0.675]","","",""
"sailing-trial","252","1407403","0.0-11.0-207.0","","","","false","","","","","","","","","","null","","4681","","3","1","null","null","arrowup","[0.85,0.15,0.325,0.675]","","",""
"sailing-trial","253","1414418","0.0-11.0-208.0","","","","false","","","","","","","","","","3233","","749","","2","1","arrowright","1","arrowleft","[0.85,0.15,0.325,0.675]","","",""
"sailing-trial","254","1418903","0.0-11.0-209.0","","","","false","","","","","","","","","","null","","2525","","3","1","null","null","arrowup","[0.85,0.15,0.325,0.675]","","",""
"sailing-trial","255","1422586","0.0-11.0-210.0","","","","false","","","","","","","","","","976","","88","","3","0","arrowright","1","arrowright","[0.85,0.15,0.325,0.675]","","",""
"sailing-trial","256","1425618","0.0-11.0-211.0","","","","false","","","","","","","","","","null","","1040","","3","1","null","null","arrowup","[0.85,0.15,0.325,0.675]","","",""
"sailing-trial","257","1431852","0.0-11.0-212.0","","","","false","","","","","","","","","","3474","","107","","2","0","arrowright","1","arrowleft","[0.85,0.15,0.325,0.675]","","",""
"sailing-trial","258","1434350","0.0-11.0-213.0","","","","false","","","","","","","","","","null","","1237","","2","0","null","null","arrowup","[0.85,0.15,0.325,0.675]","","",""
"sailing-trial","259","1437829","0.0-11.0-214.0","","","","false","","","","","","","","","","463.99999999976717","","404","","0","0","arrowleft","0","arrowleft","[0.15,0.85,0.675,0.325]","","",""
"sailing-trial","260","1444067","0.0-11.0-215.0","","","","false","","","","","","","","","","null","","3676","","2","1","null","null","arrowup","[0.15,0.85,0.675,0.325]","","",""
"sailing-trial","261","1448312","0.0-11.0-216.0","","","","false","","","","","","","","","","1080","","812","","2","0","arrowright","1","arrowleft","[0.15,0.85,0.675,0.325]","","",""
"sailing-trial","262","1451552","0.0-11.0-217.0","","","","false","","","","","","","","","","null","","1423","","2","1","null","null","arrowup","[0.15,0.85,0.675,0.325]","","",""
"sailing-trial","263","1456869","0.0-11.0-218.0","","","","false","","","","","","","","","","2132.999999999767","","242.00000000023283","","0","1","arrowleft","0","arrowleft","[0.15,0.85,0.675,0.325]","","",""
"sailing-trial","264","1459366","0.0-11.0-219.0","","","","false","","","","","","","","","","null","","929","","3","0","null","null","arrowup","[0.15,0.85,0.675,0.325]","","",""
"sailing-trial","265","1465570","0.0-11.0-220.0","","","","false","","","","","","","","","","1145","","895","","2","0","arrowright","1","arrowleft","[0.15,0.85,0.675,0.325]","","",""
"sailing-trial","266","1471069","0.0-11.0-221.0","","","","false","","","","","","","","","","null","","2487.999999999767","","0","0","null","null","arrowup","[0.15,0.85,0.675,0.325]","","",""
"sailing-trial","267","1482018","0.0-11.0-222.0","","","","false","","","","","","","","","","3800","","2968","","0","0","arrowleft","0","arrowleft","[0.15,0.85,0.675,0.325]","","",""
"sailing-trial","268","1489001","0.0-11.0-223.0","","","","false","","","","","","","","","","null","","2372","","1","1","null","null","arrowup","[0.15,0.85,0.675,0.325]","","",""
"sailing-trial","269","1492335","0.0-11.0-224.0","","","","false","","","","","","","","","","57","","215","","3","1","arrowright","1","arrowright","[0.15,0.85,0.675,0.325]","","",""
"sailing-trial","270","1499284","0.0-11.0-225.0","","","","false","","","","","","","","","","null","","3929.000000000233","","0","0","null","null","arrowup","[0.15,0.85,0.675,0.325]","","",""
"sailing-trial","271","1505868","0.0-11.0-226.0","","","","false","","","","","","","","","","3095","","380.00000000023283","","1","1","arrowleft","0","arrowright","[0.15,0.85,0.675,0.325]","","",""
"sailing-trial","272","1509268","0.0-11.0-227.0","","","","false","","","","","","","","","","null","","1859.9999999997672","","3","0","null","null","arrowup","[0.15,0.85,0.675,0.325]","","",""
"sailing-trial","273","1519534","0.0-11.0-228.0","","","","false","","","","","","","","","","2902","","3203.999999999767","","1","0","arrowleft","0","arrowright","[0.15,0.85,0.675,0.325]","","",""
"sailing-trial","274","1527269","0.0-11.0-229.0","","","","false","","","","","","","","","","null","","4798","","0","0","null","null","arrowup","[0.15,0.85,0.675,0.325]","","",""
"sailing-trial","275","1531900","0.0-11.0-230.0","","","","false","","","","","","","","","","779","","616.0000000002328","","1","1","arrowleft","0","arrowright","[0.325,0.675,0.85,0.15]","","",""
"sailing-trial","276","1537055","0.0-11.0-231.0","","","","false","","","","","","","","","","null","","2580","","3","0","null","null","arrowup","[0.325,0.675,0.85,0.15]","","",""
"sailing-trial","277","1541984","0.0-11.0-232.0","","","","false","","","","","","","","","","596","","1581","","1","1","arrowleft","0","arrowright","[0.325,0.675,0.85,0.15]","","",""
"sailing-trial","278","1545902","0.0-11.0-233.0","","","","false","","","","","","","","","","null","","896.9999999997672","","1","0","null","null","arrowup","[0.325,0.675,0.85,0.15]","","",""
"sailing-trial","279","1550070","0.0-11.0-234.0","","","","false","","","","","","","","","","1344","","452","","1","0","arrowleft","0","arrowright","[0.325,0.675,0.85,0.15]","","",""
"sailing-trial","280","1553101","0.0-11.0-235.0","","","","false","","","","","","","","","","null","","1423","","1","1","null","null","arrowup","[0.325,0.675,0.85,0.15]","","",""
"sailing-trial","281","1557168","0.0-11.0-236.0","","","","false","","","","","","","","","","706.9999999997672","","112","","2","1","arrowright","1","arrowleft","[0.325,0.675,0.85,0.15]","","",""
"sailing-trial","282","1559884","0.0-11.0-237.0","","","","false","","","","","","","","","","null","","1105.0000000002328","","1","1","null","null","arrowup","[0.325,0.675,0.85,0.15]","","",""
"sailing-trial","283","1564333","0.0-11.0-238.0","","","","false","","","","","","","","","","991","","381","","1","1","arrowleft","0","arrowright","[0.325,0.675,0.85,0.15]","","",""
"sailing-trial","284","1567385","0.0-11.0-239.0","","","","false","","","","","","","","","","null","","1289","","1","1","null","null","arrowup","[0.325,0.675,0.85,0.15]","","",""
"sailing-trial","285","1573118","0.0-11.0-240.0","","","","false","","","","","","","","","","1141","","289","","1","1","arrowleft","0","arrowright","[0.325,0.675,0.85,0.15]","","",""
"sailing-trial","286","1576617","0.0-11.0-241.0","","","","false","","","","","","","","","","null","","1331.9999999997672","","2","1","null","null","arrowup","[0.325,0.675,0.85,0.15]","","",""
"sailing-trial","287","1580087","0.0-11.0-242.0","","","","false","","","","","","","","","","479","","272.99999999976717","","2","0","arrowright","1","arrowleft","[0.325,0.675,0.85,0.15]","","",""
"sailing-trial","288","1586118","0.0-11.0-243.0","","","","false","","","","","","","","","","null","","3020","","1","0","null","null","arrowup","[0.325,0.675,0.85,0.15]","","",""
"sailing-trial","289","1592984","0.0-11.0-244.0","","","","false","","","","","","","","","","3595","","334","","1","1","arrowleft","0","arrowright","[0.325,0.675,0.85,0.15]","","",""
"sailing-trial","290","1599216","0.0-11.0-245.0","","","","false","","","","","","","","","","null","","4542","","1","1","null","null","arrowup","[0.325,0.675,0.85,0.15]","","",""
"sailing-trial","291","1603485","0.0-11.0-246.0","","","","false","","","","","","","","","","1411","","194","","2","1","arrowright","1","arrowleft","[0.15,0.85,0.675,0.325]","","",""
"sailing-trial","292","1610001","0.0-11.0-247.0","","","","false","","","","","","","","","","null","","4254.999999999767","","1","1","null","null","arrowup","[0.15,0.85,0.675,0.325]","","",""
"sailing-trial","293","1620450","0.0-11.0-248.0","","","","false","","","","","","","","","","2912","","2718.999999999767","","2","1","arrowright","1","arrowleft","[0.15,0.85,0.675,0.325]","","",""
"sailing-trial","294","1624474","0.0-11.0-249.0","","","","false","","","","","","","","","","null","","2462","","0","0","null","null","arrowup","[0.15,0.85,0.675,0.325]","","",""
"sailing-trial","295","1628227","0.0-11.0-250.0","","","","false","","","","","","","","","","1275.9999999997672","","249","","3","0","arrowright","1","arrowright","[0.15,0.85,0.675,0.325]","","",""
"sailing-trial","296","1630590","0.0-11.0-251.0","","","","false","","","","","","","","","","null","","955","","2","0","null","null","arrowup","[0.15,0.85,0.675,0.325]","","",""
"sailing-trial","297","1634267","0.0-11.0-252.0","","","","false","","","","","","","","","","776","","143","","1","1","arrowleft","0","arrowright","[0.15,0.85,0.675,0.325]","","",""
"sailing-trial","298","1637466","0.0-11.0-253.0","","","","false","","","","","","","","","","null","","1362.0000000002328","","1","1","null","null","arrowup","[0.15,0.85,0.675,0.325]","","",""
"sailing-trial","299","1641034","0.0-11.0-254.0","","","","false","","","","","","","","","","763","","44","","1","1","arrowleft","0","arrowright","[0.15,0.85,0.675,0.325]","","",""
"sailing-trial","300","1644117","0.0-11.0-255.0","","","","false","","","","","","","","","","null","","932","","3","1","null","null","arrowup","[0.15,0.85,0.675,0.325]","","",""
"sailing-trial","301","1647500","0.0-11.0-256.0","","","","false","","","","","","","","","","10","","385","","1","1","arrowleft","0","arrowright","[0.15,0.85,0.675,0.325]","","",""
"sailing-trial","302","1650052","0.0-11.0-257.0","","","","false","","","","","","","","","","null","","831","","1","1","null","null","arrowup","[0.15,0.85,0.675,0.325]","","",""
"sailing-trial","303","1654616","0.0-11.0-258.0","","","","false","","","","","","","","","","656","","1151","","1","1","arrowleft","0","arrowright","[0.15,0.85,0.675,0.325]","","",""
"sailing-trial","304","1657867","0.0-11.0-259.0","","","","false","","","","","","","","","","null","","854.9999999997672","","1","1","null","null","arrowup","[0.15,0.85,0.675,0.325]","","",""
"sailing-trial","305","1661650","0.0-11.0-260.0","","","","false","","","","","","","","","","679","","346","","1","1","arrowleft","0","arrowright","[0.15,0.85,0.675,0.325]","","",""
"sailing-trial","306","1666477","0.0-11.0-261.0","","","","false","","","","","","","","","","null","","2665","","0","0","null","null","arrowup","[0.15,0.85,0.675,0.325]","","",""
"sailing-trial","307","1672634","0.0-11.0-262.0","","","","false","","","","","","","","","","2660","","393","","1","1","arrowleft","0","arrowright","[0.15,0.85,0.675,0.325]","","",""
"sailing-trial","308","1679683","0.0-11.0-263.0","","","","false","","","","","","","","","","null","","3061","","1","1","null","null","arrowup","[0.15,0.85,0.675,0.325]","","",""
"sailing-trial","309","1685403","0.0-11.0-264.0","","","","false","","","","","","","","","","2469","","1010","","1","0","arrowleft","0","arrowright","[0.325,0.675,0.85,0.15]","","",""
"sailing-trial","310","1691299","0.0-11.0-265.0","","","","false","","","","","","","","","","null","","2343","","2","1","null","null","arrowup","[0.325,0.675,0.85,0.15]","","",""
"sailing-trial","311","1701783","0.0-11.0-266.0","","","","false","","","","","","","","","","5711","","2084.000000000233","","3","1","arrowright","1","arrowright","[0.325,0.675,0.85,0.15]","","",""
"sailing-trial","312","1707450","0.0-11.0-267.0","","","","false","","","","","","","","","","null","","3731","","2","1","null","null","arrowup","[0.325,0.675,0.85,0.15]","","",""
"sailing-trial","313","1711434","0.0-11.0-268.0","","","","false","","","","","","","","","","685","","281","","1","1","arrowleft","0","arrowright","[0.325,0.675,0.85,0.15]","","",""
"sailing-trial","314","1714354","0.0-11.0-269.0","","","","false","","","","","","","","","","null","","1824.9999999997672","","3","0","null","null","arrowup","[0.325,0.675,0.85,0.15]","","",""
"sailing-trial","315","1718284","0.0-11.0-270.0","","","","false","","","","","","","","","","446","","402","","1","1","arrowleft","0","arrowright","[0.325,0.675,0.85,0.15]","","",""
"sailing-trial","316","1720707","0.0-11.0-271.0","","","","false","","","","","","","","","","null","","1265","","0","0","null","null","arrowup","[0.325,0.675,0.85,0.15]","","",""
"sailing-trial","317","1724034","0.0-11.0-272.0","","","","false","","","","","","","","","","857","","238","","1","0","arrowleft","0","arrowright","[0.325,0.675,0.85,0.15]","","",""
"sailing-trial","318","1729399","0.0-11.0-273.0","","","","false","","","","","","","","","","null","","2617","","2","1","null","null","arrowup","[0.325,0.675,0.85,0.15]","","",""
"sailing-trial","319","1733016","0.0-11.0-274.0","","","","false","","","","","","","","","","775.9999999997672","","39","","1","1","arrowleft","0","arrowright","[0.325,0.675,0.85,0.15]","","",""
"sailing-trial","320","1735450","0.0-11.0-275.0","","","","false","","","","","","","","","","null","","824","","1","1","null","null","arrowup","[0.325,0.675,0.85,0.15]","","",""
"sailing-trial","321","1739683","0.0-11.0-276.0","","","","false","","","","","","","","","","774","","568.9999999997672","","1","1","arrowleft","0","arrowright","[0.325,0.675,0.85,0.15]","","",""
"sailing-trial","322","1741959","0.0-11.0-277.0","","","","false","","","","","","","","","","null","","1031","","0","0","null","null","arrowup","[0.325,0.675,0.85,0.15]","","",""
"sailing-trial","323","1746866","0.0-11.0-278.0","","","","false","","","","","","","","","","1000","","1098","","1","1","arrowleft","0","arrowright","[0.325,0.675,0.85,0.15]","","",""
"sailing-trial","324","1750284","0.0-11.0-279.0","","","","false","","","","","","","","","","null","","2129","","1","0","null","null","arrowup","[0.325,0.675,0.85,0.15]","","",""
"sailing-trial","325","1755366","0.0-11.0-280.0","","","","false","","","","","","","","","","977","","1272","","1","1","arrowleft","0","arrowright","[0.325,0.675,0.85,0.15]","","",""
"sailing-trial","326","1758416","0.0-11.0-281.0","","","","false","","","","","","","","","","null","","1124","","2","1","null","null","arrowup","[0.325,0.675,0.85,0.15]","","",""
"sailing-trial","327","1761900","0.0-11.0-282.0","","","","false","","","","","","","","","","470","","64.00000000023283","","1","1","arrowleft","0","arrowright","[0.325,0.675,0.85,0.15]","","",""
"sailing-trial","328","1765134","0.0-11.0-283.0","","","","false","","","","","","","","","","null","","1353","","3","0","null","null","arrowup","[0.325,0.675,0.85,0.15]","","",""
"sailing-trial","329","1768702","0.0-11.0-284.0","","","","false","","","","","","","","","","534","","347","","3","0","arrowright","1","arrowright","[0.325,0.675,0.85,0.15]","","",""
"sailing-trial","330","1771047","0.0-11.0-285.0","","","","false","","","","","","","","","","null","","801","","0","0","null","null","arrowup","[0.325,0.675,0.85,0.15]","","",""
"sailing-trial","331","1776283","0.0-11.0-286.0","","","","false","","","","","","","","","","794.0000000002328","","515","","1","1","arrowleft","0","arrowright","[0.325,0.675,0.85,0.15]","","",""
"sailing-trial","332","1780208","0.0-11.0-287.0","","","","false","","","","","","","","","","null","","2380.999999999767","","3","0","null","null","arrowup","[0.325,0.675,0.85,0.15]","","",""
"sailing-trial","333","1783836","0.0-11.0-288.0","","","","false","","","","","","","","","","689","","194.99999999976717","","1","0","arrowleft","0","arrowright","[0.85,0.15,0.325,0.675]","","",""
"sailing-trial","334","1786766","0.0-11.0-289.0","","","","false","","","","","","","","","","null","","1143","","2","1","null","null","arrowup","[0.85,0.15,0.325,0.675]","","",""
"sailing-trial","335","1792116","0.0-11.0-290.0","","","","false","","","","","","","","","","1886","","713.9999999997672","","3","1","arrowright","1","arrowright","[0.85,0.15,0.325,0.675]","","",""
"sailing-trial","336","1794724","0.0-11.0-291.0","","","","false","","","","","","","","","","null","","976","","1","0","null","null","arrowup","[0.85,0.15,0.325,0.675]","","",""
"sailing-trial","337","1801016","0.0-11.0-292.0","","","","false","","","","","","","","","","679","","256.99999999976717","","0","1","arrowleft","0","arrowleft","[0.85,0.15,0.325,0.675]","","",""
"sailing-trial","338","1808450","0.0-11.0-293.0","","","","false","","","","","","","","","","null","","4420","","2","0","null","null","arrowup","[0.85,0.15,0.325,0.675]","","",""
"sailing-trial","339","1812832","0.0-11.0-294.0","","","","false","","","","","","","","","","1090","","296","","0","1","arrowleft","0","arrowleft","[0.85,0.15,0.325,0.675]","","",""
"sailing-trial","340","1815933","0.0-11.0-295.0","","","","false","","","","","","","","","","null","","1314.9999999997672","","2","1","null","null","arrowup","[0.85,0.15,0.325,0.675]","","",""
"sailing-trial","341","1823266","0.0-11.0-296.0","","","","false","","","","","","","","","","928.0000000002328","","2235.000000000233","","3","0","arrowright","1","arrowright","[0.85,0.15,0.325,0.675]","","",""
"sailing-trial","342","1827145","0.0-11.0-297.0","","","","false","","","","","","","","","","null","","1611","","1","0","null","null","arrowup","[0.85,0.15,0.325,0.675]","","",""
"sailing-trial","343","1831749","0.0-11.0-298.0","","","","false","","","","","","","","","","783.0000000002328","","426","","0","1","arrowleft","0","arrowleft","[0.85,0.15,0.325,0.675]","","",""
"sailing-trial","344","1836728","0.0-11.0-299.0","","","","false","","","","","","","","","","null","","2294","","3","0","null","null","arrowup","[0.85,0.15,0.325,0.675]","","",""
"sailing-trial","345","1841062","0.0-11.0-300.0","","","","false","","","","","","","","","","1253","","602","","3","0","arrowright","1","arrowright","[0.85,0.15,0.325,0.675]","","",""
"sailing-trial","346","1851499","0.0-11.0-301.0","","","","false","","","","","","","","","","null","","5734.999999999767","","3","1","null","null","arrowup","[0.85,0.15,0.325,0.675]","","",""
"sailing-trial","347","1856336","0.0-11.0-302.0","","","","false","","","","","","","","","","928","","1284.0000000002328","","1","0","arrowleft","0","arrowright","[0.85,0.15,0.325,0.675]","","",""
"sailing-trial","348","1862122","0.0-11.0-303.0","","","","false","","","","","","","","","","null","","4442","","3","0","null","null","arrowup","[0.85,0.15,0.325,0.675]","","",""
"sailing-trial","349","1865330","0.0-11.0-304.0","","","","false","","","","","","","","","","506","","326","","1","0","arrowleft","0","arrowright","[0.85,0.15,0.325,0.675]","","",""
"sailing-trial","350","1869613","0.0-11.0-305.0","","","","false","","","","","","","","","","null","","2625","","3","1","null","null","arrowup","[0.85,0.15,0.325,0.675]","","",""
"sailing-trial","351","1873132","0.0-11.0-306.0","","","","false","","","","","","","","","","709","","59","","2","1","arrowright","1","arrowleft","[0.675,0.325,0.15,0.85]","","",""
"sailing-trial","352","1874891","0.0-11.0-307.0","","","","false","","","","","","","","","","null","","663","","2","0","null","null","arrowup","[0.675,0.325,0.15,0.85]","","",""
"sailing-trial","353","1878815","0.0-11.0-308.0","","","","false","","","","","","","","","","747.9999999997672","","272","","1","1","arrowleft","0","arrowright","[0.675,0.325,0.15,0.85]","","",""
"sailing-trial","354","1881120","0.0-11.0-309.0","","","","false","","","","","","","","","","null","","891","","2","0","null","null","arrowup","[0.675,0.325,0.15,0.85]","","",""
"sailing-trial","355","1886249","0.0-11.0-310.0","","","","false","","","","","","","","","","1069","","484","","1","1","arrowleft","0","arrowright","[0.675,0.325,0.15,0.85]","","",""
"sailing-trial","356","1893482","0.0-11.0-311.0","","","","false","","","","","","","","","","null","","5536","","1","1","null","null","arrowup","[0.675,0.325,0.15,0.85]","","",""
"sailing-trial","357","1897848","0.0-11.0-312.0","","","","false","","","","","","","","","","1015","","240","","0","1","arrowleft","0","arrowleft","[0.675,0.325,0.15,0.85]","","",""
"sailing-trial","358","1901374","0.0-11.0-313.0","","","","false","","","","","","","","","","null","","2210","","0","0","null","null","arrowup","[0.675,0.325,0.15,0.85]","","",""
"sailing-trial","359","1906014","0.0-11.0-314.0","","","","false","","","","","","","","","","399","","1511.9999999997672","","3","1","arrowright","1","arrowright","[0.675,0.325,0.15,0.85]","","",""
"sailing-trial","360","1908844","0.0-11.0-315.0","","","","false","","","","","","","","","","null","","1471","","1","0","null","null","arrowup","[0.675,0.325,0.15,0.85]","","",""
"sailing-trial","361","1912315","0.0-11.0-316.0","","","","false","","","","","","","","","","397","","241","","3","1","arrowright","1","arrowright","[0.675,0.325,0.15,0.85]","","",""
"sailing-trial","362","1914832","0.0-11.0-317.0","","","","false","","","","","","","","","","null","","903","","0","1","null","null","arrowup","[0.675,0.325,0.15,0.85]","","",""
"sailing-trial","363","1918432","0.0-11.0-318.0","","","","false","","","","","","","","","","481.99999999976717","","76","","3","1","arrowright","1","arrowright","[0.675,0.325,0.15,0.85]","","",""
"sailing-trial","364","1921299","0.0-11.0-319.0","","","","false","","","","","","","","","","null","","604","","0","1","null","null","arrowup","[0.675,0.325,0.15,0.85]","","",""
"sailing-trial","365","1924607","0.0-11.0-320.0","","","","false","","","","","","","","","","424","","405","","0","0","arrowleft","0","arrowleft","[0.675,0.325,0.15,0.85]","","",""
"sailing-trial","366","1927013","0.0-11.0-321.0","","","","false","","","","","","","","","","null","","715","","1","1","null","null","arrowup","[0.675,0.325,0.15,0.85]","","",""
"sailing-trial","367","1930398","0.0-11.0-322.0","","","","false","","","","","","","","","","330","","376","","1","1","arrowleft","0","arrowright","[0.675,0.325,0.15,0.85]","","",""
"sailing-trial","368","1932831","0.0-11.0-323.0","","","","false","","","","","","","","","","null","","800","","1","1","null","null","arrowup","[0.675,0.325,0.15,0.85]","","",""
"sailing-trial","369","1936071","0.0-11.0-324.0","","","","false","","","","","","","","","","416.99999999976717","","388.99999999976717","","1","0","arrowleft","0","arrowright","[0.675,0.325,0.15,0.85]","","",""
"sailing-trial","370","1938631","0.0-11.0-325.0","","","","false","","","","","","","","","","null","","827","","0","1","null","null","arrowup","[0.675,0.325,0.15,0.85]","","",""
"sailing-trial","371","1942131","0.0-11.0-326.0","","","","false","","","","","","","","","","482","","264","","3","1","arrowright","1","arrowright","[0.675,0.325,0.15,0.85]","","",""
"sailing-trial","372","1945198","0.0-11.0-327.0","","","","false","","","","","","","","","","null","","579","","3","1","null","null","arrowup","[0.675,0.325,0.15,0.85]","","",""
"sailing-trial","373","1948938","0.0-11.0-328.0","","","","false","","","","","","","","","","571","","270.99999999976717","","3","0","arrowright","1","arrowright","[0.85,0.15,0.325,0.675]","","",""
"sailing-trial","374","1951502","0.0-11.0-329.0","","","","false","","","","","","","","","","null","","1173","","3","0","null","null","arrowup","[0.85,0.15,0.325,0.675]","","",""
"sailing-trial","375","1954599","0.0-11.0-330.0","","","","false","","","","","","","","","","596","","154","","1","0","arrowleft","0","arrowright","[0.85,0.15,0.325,0.675]","","",""
"sailing-trial","376","1958081","0.0-11.0-331.0","","","","false","","","","","","","","","","null","","1376","","0","1","null","null","arrowup","[0.85,0.15,0.325,0.675]","","",""
"sailing-trial","377","1962981","0.0-11.0-332.0","","","","false","","","","","","","","","","621.9999999997672","","176","","1","1","arrowleft","0","arrowright","[0.85,0.15,0.325,0.675]","","",""
"sailing-trial","378","1964973","0.0-11.0-333.0","","","","false","","","","","","","","","","null","","903","","2","0","null","null","arrowup","[0.85,0.15,0.325,0.675]","","",""
"sailing-trial","379","1968781","0.0-11.0-334.0","","","","false","","","","","","","","","","617","","294.99999999976717","","1","1","arrowleft","0","arrowright","[0.85,0.15,0.325,0.675]","","",""
"sailing-trial","380","1972965","0.0-11.0-335.0","","","","false","","","","","","","","","","null","","1941","","0","1","null","null","arrowup","[0.85,0.15,0.325,0.675]","","",""
"sailing-trial","381","1977698","0.0-11.0-336.0","","","","false","","","","","","","","","","938","","674","","0","1","arrowleft","0","arrowleft","[0.85,0.15,0.325,0.675]","","",""
"sailing-trial","382","1980915","0.0-11.0-337.0","","","","false","","","","","","","","","","null","","1466.9999999997672","","2","1","null","null","arrowup","[0.85,0.15,0.325,0.675]","","",""
"sailing-trial","383","1990381","0.0-11.0-338.0","","","","false","","","","","","","","","","1799","","3221","","3","1","arrowright","1","arrowright","[0.85,0.15,0.325,0.675]","","",""
"sailing-trial","384","1992584","0.0-11.0-339.0","","","","false","","","","","","","","","","null","","1035.0000000002328","","2","0","null","null","arrowup","[0.85,0.15,0.325,0.675]","","",""
"sailing-trial","385","2000350","0.0-11.0-340.0","","","","false","","","","","","","","","","3865","","1318","","1","0","arrowleft","0","arrowright","[0.85,0.15,0.325,0.675]","","",""
"sailing-trial","386","2003498","0.0-11.0-341.0","","","","false","","","","","","","","","","null","","622.9999999997672","","2","1","null","null","arrowup","[0.85,0.15,0.325,0.675]","","",""
"sailing-trial","387","2006291","0.0-11.0-342.0","","","","false","","","","","","","","","","450.00000000023283","","43.99999999976717","","1","0","arrowleft","0","arrowright","[0.85,0.15,0.325,0.675]","","",""
"sailing-trial","388","2010138","0.0-11.0-343.0","","","","false","","","","","","","","","","null","","2692","","3","0","null","null","arrowup","[0.85,0.15,0.325,0.675]","","",""
"sailing-trial","389","2014698","0.0-11.0-344.0","","","","false","","","","","","","","","","1065","","384","","3","1","arrowright","1","arrowright","[0.325,0.675,0.85,0.15]","","",""
"sailing-trial","390","2017941","0.0-11.0-345.0","","","","false","","","","","","","","","","null","","934","","0","0","null","null","arrowup","[0.325,0.675,0.85,0.15]","","",""
"sailing-trial","391","2021417","0.0-11.0-346.0","","","","false","","","","","","","","","","509","","79.99999999976717","","3","0","arrowright","1","arrowright","[0.325,0.675,0.85,0.15]","","",""
"sailing-trial","392","2027814","0.0-11.0-347.0","","","","false","","","","","","","","","","null","","2696","","2","1","null","null","arrowup","[0.325,0.675,0.85,0.15]","","",""
"sailing-trial","393","2032800","0.0-11.0-348.0","","","","false","","","","","","","","","","1081.9999999997672","","1090","","0","0","arrowleft","0","arrowleft","[0.325,0.675,0.85,0.15]","","",""
"sailing-trial","394","2037933","0.0-11.0-349.0","","","","false","","","","","","","","","","null","","3065.999999999767","","1","0","null","null","arrowup","[0.325,0.675,0.85,0.15]","","",""
"sailing-trial","395","2041465","0.0-11.0-350.0","","","","false","","","","","","","","","","546","","49","","1","1","arrowleft","0","arrowright","[0.325,0.675,0.85,0.15]","","",""
"sailing-trial","396","2044564","0.0-11.0-351.0","","","","false","","","","","","","","","","null","","845","","3","0","null","null","arrowup","[0.325,0.675,0.85,0.15]","","",""
"sailing-trial","397","2049830","0.0-11.0-352.0","","","","false","","","","","","","","","","2248","","265.00000000023283","","1","1","arrowleft","0","arrowright","[0.325,0.675,0.85,0.15]","","",""
"sailing-trial","398","2052217","0.0-11.0-353.0","","","","false","","","","","","","","","","null","","1085","","3","0","null","null","arrowup","[0.325,0.675,0.85,0.15]","","",""
"sailing-trial","399","2056164","0.0-11.0-354.0","","","","false","","","","","","","","","","649","","305","","1","1","arrowleft","0","arrowright","[0.325,0.675,0.85,0.15]","","",""
"sailing-trial","400","2058601","0.0-11.0-355.0","","","","false","","","","","","","","","","null","","1233.0000000002328","","0","0","null","null","arrowup","[0.325,0.675,0.85,0.15]","","",""
"sailing-trial","401","2063414","0.0-11.0-356.0","","","","false","","","","","","","","","","1583","","404","","3","1","arrowright","1","arrowright","[0.325,0.675,0.85,0.15]","","",""
"sailing-trial","402","2066014","0.0-11.0-357.0","","","","false","","","","","","","","","","null","","982.9999999997672","","0","1","null","null","arrowup","[0.325,0.675,0.85,0.15]","","",""
"sailing-trial","403","2069547","0.0-11.0-358.0","","","","false","","","","","","","","","","273","","460","","1","1","arrowleft","0","arrowright","[0.325,0.675,0.85,0.15]","","",""
"sailing-trial","404","2072274","0.0-11.0-359.0","","","","false","","","","","","","","","","null","","924","","0","0","null","null","arrowup","[0.325,0.675,0.85,0.15]","","",""
"sailing-trial","405","2075484","0.0-11.0-360.0","","","","false","","","","","","","","","","751.9999999997672","","68.00000000023283","","1","0","arrowleft","0","arrowright","[0.325,0.675,0.85,0.15]","","",""
"sailing-trial","406","2077801","0.0-11.0-361.0","","","","false","","","","","","","","","","null","","839","","3","0","null","null","arrowup","[0.325,0.675,0.85,0.15]","","",""
"sailing-trial","407","2086397","0.0-11.0-362.0","","","","false","","","","","","","","","","1326.9999999997672","","3105","","3","0","arrowright","1","arrowright","[0.325,0.675,0.85,0.15]","","",""
"sailing-trial","408","2089234","0.0-11.0-363.0","","","","false","","","","","","","","","","null","","1307.0000000002328","","0","0","null","null","arrowup","[0.325,0.675,0.85,0.15]","","",""
"sailing-trial","409","2092137","0.0-11.0-364.0","","","","false","","","","","","","","","","399.99999999953434","","163","","1","0","arrowleft","0","arrowright","[0.675,0.325,0.15,0.85]","","",""
"sailing-trial","410","2094730","0.0-11.0-365.0","","","","false","","","","","","","","","","null","","759","","1","1","null","null","arrowup","[0.675,0.325,0.15,0.85]","","",""
"sailing-trial","411","2098014","0.0-11.0-366.0","","","","false","","","","","","","","","","445.00000000023283","","19","","1","1","arrowleft","0","arrowright","[0.675,0.325,0.15,0.85]","","",""
"sailing-trial","412","2100814","0.0-11.0-367.0","","","","false","","","","","","","","","","null","","867","","2","1","null","null","arrowup","[0.675,0.325,0.15,0.85]","","",""
"sailing-trial","413","2104247","0.0-11.0-368.0","","","","false","","","","","","","","","","22","","135","","3","1","arrowright","1","arrowright","[0.675,0.325,0.15,0.85]","","",""
"sailing-trial","414","2107104","0.0-11.0-369.0","","","","false","","","","","","","","","","null","","1333","","1","0","null","null","arrowup","[0.675,0.325,0.15,0.85]","","",""
"sailing-trial","415","2110231","0.0-11.0-370.0","","","","false","","","","","","","","","","157","","297","","1","0","arrowleft","0","arrowright","[0.675,0.325,0.15,0.85]","","",""
"sailing-trial","416","2113047","0.0-11.0-371.0","","","","false","","","","","","","","","","null","","755.9999999995343","","0","1","null","null","arrowup","[0.675,0.325,0.15,0.85]","","",""
"sailing-trial","417","2116763","0.0-11.0-372.0","","","","false","","","","","","","","","","526","","321.00000000046566","","1","1","arrowleft","0","arrowright","[0.675,0.325,0.15,0.85]","","",""
"sailing-trial","418","2118888","0.0-11.0-373.0","","","","false","","","","","","","","","","null","","736.0000000004657","","1","0","null","null","arrowup","[0.675,0.325,0.15,0.85]","","",""
"sailing-trial","419","2122631","0.0-11.0-374.0","","","","false","","","","","","","","","","676","","122","","3","1","arrowright","1","arrowright","[0.675,0.325,0.15,0.85]","","",""
"sailing-trial","420","2124887","0.0-11.0-375.0","","","","false","","","","","","","","","","null","","986","","1","0","null","null","arrowup","[0.675,0.325,0.15,0.85]","","",""
"sailing-trial","421","2128814","0.0-11.0-376.0","","","","false","","","","","","","","","","371","","562","","0","1","arrowleft","0","arrowleft","[0.675,0.325,0.15,0.85]","","",""
"sailing-trial","422","2131863","0.0-11.0-377.0","","","","false","","","","","","","","","","null","","738","","0","1","null","null","arrowup","[0.675,0.325,0.15,0.85]","","",""
"sailing-trial","423","2136913","0.0-11.0-378.0","","","","false","","","","","","","","","","2254","","74.99999999953434","","3","1","arrowright","1","arrowright","[0.675,0.325,0.15,0.85]","","",""
"sailing-trial","424","2138995","0.0-11.0-379.0","","","","false","","","","","","","","","","null","","919","","1","0","null","null","arrowup","[0.675,0.325,0.15,0.85]","","",""
"sailing-trial","425","2141770","0.0-11.0-380.0","","","","false","","","","","","","","","","453","","95","","1","0","arrowleft","0","arrowright","[0.675,0.325,0.15,0.85]","","",""
"sailing-trial","426","2144697","0.0-11.0-381.0","","","","false","","","","","","","","","","null","","1051.9999999995343","","1","1","null","null","arrowup","[0.675,0.325,0.15,0.85]","","",""
"sailing-trial","427","2147674","0.0-11.0-382.0","","","","false","","","","","","","","","","537","","214.00000000046566","","1","0","arrowleft","0","arrowright","[0.675,0.325,0.15,0.85]","","",""
"sailing-trial","428","2150216","0.0-11.0-383.0","","","","false","","","","","","","","","","null","","1237.9999999995343","","2","0","null","null","arrowup","[0.675,0.325,0.15,0.85]","","",""
"sailing-trial","429","2153182","0.0-11.0-384.0","","","","false","","","","","","","","","","451","","242.00000000046566","","1","0","arrowleft","0","arrowright","[0.85,0.15,0.325,0.675]","","",""
"sailing-trial","430","2155355","0.0-11.0-385.0","","","","false","","","","","","","","","","null","","745","","1","0","null","null","arrowup","[0.85,0.15,0.325,0.675]","","",""
"sailing-trial","431","2158913","0.0-11.0-386.0","","","","false","","","","","","","","","","500","","577","","3","0","arrowright","1","arrowright","[0.85,0.15,0.325,0.675]","","",""
"sailing-trial","432","2162797","0.0-11.0-387.0","","","","false","","","","","","","","","","null","","1988","","2","1","null","null","arrowup","[0.85,0.15,0.325,0.675]","","",""
"sailing-trial","433","2167630","0.0-11.0-388.0","","","","false","","","","","","","","","","1512","","488","","0","1","arrowleft","0","arrowleft","[0.85,0.15,0.325,0.675]","","",""
"sailing-trial","434","2170513","0.0-11.0-389.0","","","","false","","","","","","","","","","null","","1254","","0","1","null","null","arrowup","[0.85,0.15,0.325,0.675]","","",""
"sailing-trial","435","2173647","0.0-11.0-390.0","","","","false","","","","","","","","","","333","","19","","0","1","arrowleft","0","arrowleft","[0.85,0.15,0.325,0.675]","","",""
"sailing-trial","436","2176213","0.0-11.0-391.0","","","","false","","","","","","","","","","null","","953","","0","1","null","null","arrowup","[0.85,0.15,0.325,0.675]","","",""
"sailing-trial","437","2179880","0.0-11.0-392.0","","","","false","","","","","","","","","","130","","305","","0","1","arrowleft","0","arrowleft","[0.85,0.15,0.325,0.675]","","",""
"sailing-trial","438","2182182","0.0-11.0-393.0","","","","false","","","","","","","","","","null","","1223","","1","0","null","null","arrowup","[0.85,0.15,0.325,0.675]","","",""
"sailing-trial","439","2187131","0.0-11.0-394.0","","","","false","","","","","","","","","","458","","2273","","1","0","arrowleft","0","arrowright","[0.85,0.15,0.325,0.675]","","",""
"sailing-trial","440","2193797","0.0-11.0-395.0","","","","false","","","","","","","","","","null","","3395","","0","1","null","null","arrowup","[0.85,0.15,0.325,0.675]","","",""
"sailing-trial","441","2201530","0.0-11.0-396.0","","","","false","","","","","","","","","","3048","","419","","3","1","arrowright","1","arrowright","[0.85,0.15,0.325,0.675]","","",""
"sailing-trial","442","2204396","0.0-11.0-397.0","","","","false","","","","","","","","","","null","","1481.0000000004657","","2","0","null","null","arrowup","[0.85,0.15,0.325,0.675]","","",""
"sailing-trial","443","2213497","0.0-11.0-398.0","","","","false","","","","","","","","","","1039","","1356","","1","1","arrowleft","0","arrowright","[0.85,0.15,0.325,0.675]","","",""
"sailing-trial","444","2215963","0.0-11.0-399.0","","","","false","","","","","","","","","","null","","1300.0000000004657","","2","0","null","null","arrowup","[0.85,0.15,0.325,0.675]","","",""
"instructions","445","2216281","0.0-12.0","","","","","","","","","","315.99999999953434","","","","","","","","","","","","","","","","[{""page_index"":0,""viewing_time"":315.99999999953434}]"
"survey-debrief","446","2250003","0.0-13.0","","","","","","","","","","33714","","","","","","","","","","","","","","{""difficulty"":""5"",""fun"":""3"",""clarity"":""5"",""strategy"":""I did mental notes, and I tested the stores 2 times, to decide whether to not it's lucky to not"",""feedback"":""no""}","",""
