"trial_type","trial_index","time_elapsed","internal_node_id","value","metadata","success","timeout","failed_images","failed_audio","failed_video","browser_interaction","low_quality","rt","stimulus","response","button_pressed","island_rt","island_response","boat_rt","boat_response","boat","reward","island_key","island","boat_key","reward_probabilities","responses","num_errors","view_history"
"pavlovia","0","6","0.0-0.0","","","","","","","","","","","","","","","","","","","","","","","","","",""
"call-function","1","7","0.0-1.0","","{""task_version"":""sailing_part1_v1"",""task_condition"":""good"",""boats"":[""C"",""B"",""A"",""D""],""boats_demo"":[""E"",""F"",""H"",""G""],""islands"":[""A"",""B""],""subject_id"":""14583"",""age"":""22"",""gender"":""Female""}","","","","","","","","","","","","","","","","","","","","","","","",""
"preload","2","6496","0.0-2.0","","","true","false","[]","[]","[]","[{""event"":""fullscreenenter"",""trial"":3,""time"":9556}]","false","","","","","","","","","","","","","","","","",""
"fullscreen","3","10524","0.0-3.0","","","true","","","","","","","","","","","","","","","","","","","","","","",""
"audio-keyboard-response","4","16712","0.0-4.0-0.0","","","","","","","","","","5760","audio/beep_loop.wav"," ","","","","","","","","","","","","","",""
"audio-test","5","20381","0.0-4.0-1.0","","","","","","","","","","null","audio/turtle.mp3","","3","","","","","","","","","","","","",""
"audio-test","6","24741","0.0-4.0-2.0","","","","","","","","","","null","audio/shark.mp3","","2","","","","","","","","","","","","",""
"sailing-instructions","7","69274","0.0-5.0-0.0-0.0","","","","","","","","","","","","","","null","null","null","null","null","null","","","","","","",""
"sailing-trial","8","73995","0.0-5.0-0.0-1.0-0.0","","","","false","","","","","","","","","","3603.7999997138977","","null","","null","null","arrowleft","0","null","null","","",""
"sailing-trial","9","78740","0.0-5.0-0.0-1.0-1.0","","","","false","","","","","","","","","","3623","","null","","null","null","arrowright","1","null","null","","",""
"sailing-trial","10","83293","0.0-5.0-0.0-1.0-2.0","","","","false","","","","","","","","","","3419.4000000953674","","null","","null","null","arrowleft","0","null","null","","",""
"sailing-instructions","11","137221","0.0-5.0-0.0-2.0","","","","","","","","","","","","","","null","null","null","null","0","null","","","","","","",""
"sailing-trial","12","155462","0.0-5.0-0.0-3.0-0.0","","","","false","","","","","","","","","","null","","13534.900000095367","","2","1","null","null","arrowleft","[1,1,1,1]","","",""
"sailing-trial","13","161703","0.0-5.0-0.0-3.0-1.0","","","","false","","","","","","","","","","null","","2622.9000000953674","","3","1","null","null","arrowright","[1,1,1,1]","","",""
"sailing-trial","14","167073","0.0-5.0-0.0-3.0-2.0","","","","false","","","","","","","","","","null","","2352.4000000953674","","2","0","null","null","arrowleft","[0,0,0,0]","","",""
"sailing-instructions","15","174742","0.0-5.0-0.0-4.0","","","","","","","","","","","","","","null","null","null","null","null","null","","","","","","",""
"sailing-comprehension","16","209293","0.0-5.0-0.0-5.0","","","","","","","","","","24471","","","","","","","","","","","","","","[""true"",""false"",""false"",""true""]","1",""
"sailing-instructions","17","238032","0.0-5.0-0.1-0.1","","","","","","","","","","","","","","null","null","null","null","null","null","","","","","","",""
"sailing-trial","18","242282","0.0-5.0-0.1-1.1-0.1","","","","false","","","","","","","","","","3095.9000000953674","","null","","null","null","arrowleft","0","null","null","","",""
"sailing-trial","19","244823","0.0-5.0-0.1-1.1-1.1","","","","false","","","","","","","","","","1417.7999997138977","","null","","null","null","arrowright","1","null","null","","",""
"sailing-trial","20","248107","0.0-5.0-0.1-1.1-2.1","","","","false","","","","","","","","","","2176.2999997138977","","null","","null","null","arrowleft","0","null","null","","",""
"sailing-instructions","21","299252","0.0-5.0-0.1-2.1","","","","","","","","","","","","","","null","null","null","null","0","null","","","","","","",""
"sailing-trial","22","304679","0.0-5.0-0.1-3.1-0.1","","","","false","","","","","","","","","","null","","2305.5","","2","1","null","null","arrowleft","[1,1,1,1]","","",""
"sailing-trial","23","308650","0.0-5.0-0.1-3.1-1.1","","","","false","","","","","","","","","","null","","1627.6999998092651","","3","1","null","null","arrowright","[1,1,1,1]","","",""
"sailing-trial","24","313613","0.0-5.0-0.1-3.1-2.1","","","","false","","","","","","","","","","null","","1425.7999997138977","","2","0","null","null","arrowleft","[0,0,0,0]","","",""
"sailing-instructions","25","320952","0.0-5.0-0.1-4.1","","","","","","","","","","","","","","null","null","null","null","null","null","","","","","","",""
"sailing-comprehension","26","332243","0.0-5.0-0.1-5.1","","","","","","","","","","8871.400000095367","","","","","","","","","","","","","","[""true"",""true"",""false"",""true""]","0",""
"sailing-instructions","27","410752","0.0-6.0-0.0-0.0","","","","","","","","","","","","","","null","null","null","null","null","null","","","","","","",""
"sailing-comprehension","28","437795","0.0-6.0-0.0-1.0","","","","","","","","","","13962","","","","","","","","","","","","","","[""true"",""false"",""true""]","0",""
"sailing-instructions","29","452043","0.0-7.0-0.0-0.0","","","","","","","","","","","","","","null","null","null","null","null","null","","","","","","",""
"sailing-trial","30","460169","0.0-7.0-0.0-1.0-0.0","","","","false","","","","","","","","","","null","","5114.5","","0","1","null","null","arrowup","[0.2,0.8,0.2,0.8]","","",""
"sailing-trial","31","466042","0.0-7.0-0.0-1.0-1.0","","","","false","","","","","","","","","","null","","3030.4000000953674","","1","1","null","null","arrowup","[0.2,0.8,0.2,0.8]","","",""
"sailing-trial","32","471756","0.0-7.0-0.0-1.0-2.0","","","","false","","","","","","","","","","null","","3066.4000000953674","","2","0","null","null","arrowup","[0.2,0.8,0.2,0.8]","","",""
"sailing-trial","33","476987","0.0-7.0-0.0-1.0-3.0","","","","false","","","","","","","","","","null","","2652.4000000953674","","3","1","null","null","arrowup","[0.2,0.8,0.2,0.8]","","",""
"sailing-comprehension","34","496173","0.0-7.0-0.0-2.0","","","","","","","","","","8169","","","","","","","","","","","","","","[""true""]","1",""
"sailing-instructions","35","510092","0.0-7.0-0.1-0.1","","","","","","","","","","","","","","null","null","null","null","null","null","","","","","","",""
"sailing-trial","36","516192","0.0-7.0-0.1-1.1-0.1","","","","false","","","","","","","","","","null","","3026","","0","0","null","null","arrowup","[0.2,0.8,0.2,0.8]","","",""
"sailing-trial","37","519676","0.0-7.0-0.1-1.1-1.1","","","","false","","","","","","","","","","null","","2167","","1","0","null","null","arrowup","[0.2,0.8,0.2,0.8]","","",""
"sailing-trial","38","524152","0.0-7.0-0.1-1.1-2.1","","","","false","","","","","","","","","","null","","2222.7000002861023","","2","0","null","null","arrowup","[0.2,0.8,0.2,0.8]","","",""
"sailing-trial","39","527440","0.0-7.0-0.1-1.1-3.1","","","","false","","","","","","","","","","null","","1226.5","","3","1","null","null","arrowup","[0.2,0.8,0.2,0.8]","","",""
"sailing-comprehension","40","533362","0.0-7.0-0.1-2.1","","","","","","","","","","4566.300000190735","","","","","","","","","","","","","","[""false""]","0",""
"sailing-instructions","41","546970","0.0-8.0-0.0-0.0","","","","","","","","","","","","","","null","null","null","null","null","null","","","","","","",""
"sailing-comprehension","42","552573","0.0-8.0-0.0-1.0","","","","","","","","","","4342.599999904633","","","","","","","","","","","","","","[""true""]","0",""
"sailing-instructions","43","582873","0.0-9.0-0.0-0.0","","","","","","","","","","","","","","null","null","null","null","null","null","","","","","","",""
"sailing-trial","44","590014","0.0-9.0-0.0-1.0-0.0","","","","false","","","","","","","","","","2034.7999997138977","","1468.7999997138977","","3","1","arrowright","1","arrowright","[0.2,0.8,0.2,0.8]","","",""
"sailing-trial","45","594934","0.0-9.0-0.0-1.0-1.0","","","","false","","","","","","","","","","1204.2000002861023","","65.80000019073486","","0","0","arrowleft","0","arrowleft","[0.2,0.8,0.2,0.8]","","",""
"sailing-trial","46","599326","0.0-9.0-0.0-1.0-2.0","","","","false","","","","","","","","","","null","","2154.0999999046326","","0","0","null","null","arrowup","[0.2,0.8,0.2,0.8]","","",""
"sailing-trial","47","605363","0.0-9.0-0.0-1.0-3.0","","","","false","","","","","","","","","","2202.5","","509.2000002861023","","0","0","arrowleft","0","arrowleft","[0.2,0.8,0.2,0.8]","","",""
"sailing-trial","48","609835","0.0-9.0-0.0-1.0-4.0","","","","false","","","","","","","","","","null","","1956.1000003814697","","3","1","null","null","arrowup","[0.2,0.8,0.2,0.8]","","",""
"sailing-trial","49","614023","0.0-9.0-0.0-1.0-5.0","","","","false","","","","","","","","","","944.3000001907349","","213.2000002861023","","3","1","arrowright","1","arrowright","[0.2,0.8,0.2,0.8]","","",""
"sailing-instructions","50","642246","0.0-10.0","","","","","","","","","","","","","","null","null","null","null","null","null","","","","","","",""
"sailing-trial","51","647012","0.0-11.0-0.0","","","","false","","","","","","","","","","1231.9000000953674","","356.5","","3","1","arrowright","1","arrowright","[0.325,0.675,0.15,0.85]","","",""
"sailing-trial","52","651315","0.0-11.0-1.0","","","","false","","","","","","","","","","null","","1676","","1","0","null","null","arrowup","[0.325,0.675,0.15,0.85]","","",""
"sailing-trial","53","656085","0.0-11.0-2.0","","","","false","","","","","","","","","","1964.5","","58.80000019073486","","3","0","arrowright","1","arrowright","[0.325,0.675,0.15,0.85]","","",""
"sailing-trial","54","659573","0.0-11.0-3.0","","","","false","","","","","","","","","","null","","1355.7000002861023","","2","0","null","null","arrowup","[0.325,0.675,0.15,0.85]","","",""
"sailing-trial","55","664781","0.0-11.0-4.0","","","","false","","","","","","","","","","865.5","","613.5999999046326","","2","0","arrowright","1","arrowleft","[0.325,0.675,0.15,0.85]","","",""
"sailing-trial","56","667900","0.0-11.0-5.0","","","","false","","","","","","","","","","null","","977.1999998092651","","3","1","null","null","arrowup","[0.325,0.675,0.15,0.85]","","",""
"sailing-trial","57","671774","0.0-11.0-6.0","","","","false","","","","","","","","","","879.2999997138977","","154.59999990463257","","0","0","arrowleft","0","arrowleft","[0.325,0.675,0.15,0.85]","","",""
"sailing-trial","58","674334","0.0-11.0-7.0","","","","false","","","","","","","","","","null","","1046.5","","2","0","null","null","arrowup","[0.325,0.675,0.15,0.85]","","",""
"sailing-trial","59","680084","0.0-11.0-8.0","","","","false","","","","","","","","","","837.6999998092651","","1200.5","","1","0","arrowleft","0","arrowright","[0.325,0.675,0.15,0.85]","","",""
"sailing-trial","60","682962","0.0-11.0-9.0","","","","false","","","","","","","","","","null","","944.9000000953674","","1","1","null","null","arrowup","[0.325,0.675,0.15,0.85]","","",""
"sailing-trial","61","689894","0.0-11.0-10.0","","","","false","","","","","","","","","","867.2999997138977","","3373.4000000953674","","2","0","arrowright","1","arrowleft","[0.325,0.675,0.15,0.85]","","",""
"sailing-trial","62","693037","0.0-11.0-11.0","","","","false","","","","","","","","","","null","","1134.8000001907349","","2","1","null","null","arrowup","[0.325,0.675,0.15,0.85]","","",""
"sailing-trial","63","697375","0.0-11.0-12.0","","","","false","","","","","","","","","","1002.7999997138977","","255.59999990463257","","0","1","arrowleft","0","arrowleft","[0.325,0.675,0.15,0.85]","","",""
"sailing-trial","64","700446","0.0-11.0-13.0","","","","false","","","","","","","","","","null","","1253.9000000953674","","0","0","null","null","arrowup","[0.325,0.675,0.15,0.85]","","",""
"sailing-trial","65","704833","0.0-11.0-14.0","","","","false","","","","","","","","","","1222.0999999046326","","366.30000019073486","","1","0","arrowleft","0","arrowright","[0.325,0.675,0.15,0.85]","","",""
"sailing-trial","66","708766","0.0-11.0-15.0","","","","false","","","","","","","","","","null","","936.2000002861023","","1","0","null","null","arrowup","[0.325,0.675,0.15,0.85]","","",""
"sailing-trial","67","713213","0.0-11.0-16.0","","","","false","","","","","","","","","","933.0999999046326","","931.5999999046326","","0","0","arrowleft","0","arrowleft","[0.325,0.675,0.15,0.85]","","",""
"sailing-trial","68","716271","0.0-11.0-17.0","","","","false","","","","","","","","","","null","","1104.5999999046326","","1","1","null","null","arrowup","[0.325,0.675,0.15,0.85]","","",""
"sailing-trial","69","719916","0.0-11.0-18.0","","","","false","","","","","","","","","","877.5999999046326","","396.7000002861023","","2","0","arrowright","1","arrowleft","[0.325,0.675,0.15,0.85]","","",""
"sailing-trial","70","723143","0.0-11.0-19.0","","","","false","","","","","","","","","","null","","1254","","3","1","null","null","arrowup","[0.325,0.675,0.15,0.85]","","",""
"sailing-trial","71","727985","0.0-11.0-20.0","","","","false","","","","","","","","","","1734.6999998092651","","586.7999997138977","","0","0","arrowleft","0","arrowleft","[0.15,0.85,0.325,0.675]","","",""
"sailing-trial","72","731201","0.0-11.0-21.0","","","","false","","","","","","","","","","null","","1324.0999999046326","","1","1","null","null","arrowup","[0.15,0.85,0.325,0.675]","","",""
"sailing-trial","73","735386","0.0-11.0-22.0","","","","false","","","","","","","","","","907.1000003814697","","241.39999961853027","","3","1","arrowright","1","arrowright","[0.15,0.85,0.325,0.675]","","",""
"sailing-trial","74","738003","0.0-11.0-23.0","","","","false","","","","","","","","","","null","","962.7999997138977","","1","0","null","null","arrowup","[0.15,0.85,0.325,0.675]","","",""
"sailing-trial","75","742452","0.0-11.0-24.0","","","","false","","","","","","","","","","1198.2000002861023","","896.3000001907349","","1","0","arrowleft","0","arrowright","[0.15,0.85,0.325,0.675]","","",""
"sailing-trial","76","745577","0.0-11.0-25.0","","","","false","","","","","","","","","","null","","1316.5","","2","1","null","null","arrowup","[0.15,0.85,0.325,0.675]","","",""
"sailing-trial","77","749223","0.0-11.0-26.0","","","","false","","","","","","","","","","660.6999998092651","","641.2999997138977","","0","0","arrowleft","0","arrowleft","[0.15,0.85,0.325,0.675]","","",""
"sailing-trial","78","752233","0.0-11.0-27.0","","","","false","","","","","","","","","","null","","1145","","1","1","null","null","arrowup","[0.15,0.85,0.325,0.675]","","",""
"sailing-trial","79","756669","0.0-11.0-28.0","","","","false","","","","","","","","","","1015.9000000953674","","382.19999980926514","","2","1","arrowright","1","arrowleft","[0.15,0.85,0.325,0.675]","","",""
"sailing-trial","80","759403","0.0-11.0-29.0","","","","false","","","","","","","","","","null","","938.9000000953674","","3","1","null","null","arrowup","[0.15,0.85,0.325,0.675]","","",""
"sailing-trial","81","763473","0.0-11.0-30.0","","","","false","","","","","","","","","","1145.2999997138977","","271.2999997138977","","2","0","arrowright","1","arrowleft","[0.15,0.85,0.325,0.675]","","",""
"sailing-trial","82","766275","0.0-11.0-31.0","","","","false","","","","","","","","","","null","","956.3000001907349","","3","1","null","null","arrowup","[0.15,0.85,0.325,0.675]","","",""
"sailing-trial","83","769978","0.0-11.0-32.0","","","","false","","","","","","","","","","663.8000001907349","","29.699999809265137","","3","1","arrowright","1","arrowright","[0.15,0.85,0.325,0.675]","","",""
"sailing-trial","84","772863","0.0-11.0-33.0","","","","false","","","","","","","","","","null","","980.3000001907349","","3","1","null","null","arrowup","[0.15,0.85,0.325,0.675]","","",""
"sailing-trial","85","776832","0.0-11.0-34.0","","","","false","","","","","","","","","","827.5999999046326","","186.90000009536743","","3","1","arrowright","1","arrowright","[0.15,0.85,0.325,0.675]","","",""
"sailing-trial","86","780003","0.0-11.0-35.0","","","","false","","","","","","","","","","null","","1055.6999998092651","","1","1","null","null","arrowup","[0.15,0.85,0.325,0.675]","","",""
"sailing-trial","87","783621","0.0-11.0-36.0","","","","false","","","","","","","","","","616.0999999046326","","83.5","","3","1","arrowright","1","arrowright","[0.325,0.675,0.15,0.85]","","",""
"sailing-trial","88","786093","0.0-11.0-37.0","","","","false","","","","","","","","","","null","","1157.2999997138977","","0","0","null","null","arrowup","[0.325,0.675,0.15,0.85]","","",""
"sailing-trial","89","789658","0.0-11.0-38.0","","","","false","","","","","","","","","","645.5","","42.69999980926514","","3","1","arrowright","1","arrowright","[0.325,0.675,0.15,0.85]","","",""
"sailing-trial","90","791983","0.0-11.0-39.0","","","","false","","","","","","","","","","null","","961","","2","0","null","null","arrowup","[0.325,0.675,0.15,0.85]","","",""
"sailing-trial","91","796682","0.0-11.0-40.0","","","","false","","","","","","","","","","777.9000000953674","","1091.5999999046326","","3","1","arrowright","1","arrowright","[0.325,0.675,0.15,0.85]","","",""
"sailing-trial","92","799593","0.0-11.0-41.0","","","","false","","","","","","","","","","null","","1215.9000000953674","","0","0","null","null","arrowup","[0.325,0.675,0.15,0.85]","","",""
"sailing-trial","93","803755","0.0-11.0-42.0","","","","false","","","","","","","","","","495.90000009536743","","701.5","","3","1","arrowright","1","arrowright","[0.325,0.675,0.15,0.85]","","",""
"sailing-trial","94","806874","0.0-11.0-43.0","","","","false","","","","","","","","","","null","","993.8000001907349","","0","1","null","null","arrowup","[0.325,0.675,0.15,0.85]","","",""
"sailing-trial","95","810810","0.0-11.0-44.0","","","","false","","","","","","","","","","725.0999999046326","","345.80000019073486","","3","1","arrowright","1","arrowright","[0.325,0.675,0.15,0.85]","","",""
"sailing-trial","96","813761","0.0-11.0-45.0","","","","false","","","","","","","","","","null","","839.3000001907349","","2","1","null","null","arrowup","[0.325,0.675,0.15,0.85]","","",""
"sailing-trial","97","818031","0.0-11.0-46.0","","","","false","","","","","","","","","","578","","747.5","","3","1","arrowright","1","arrowright","[0.325,0.675,0.15,0.85]","","",""
"sailing-trial","98","821249","0.0-11.0-47.0","","","","false","","","","","","","","","","null","","857.6999998092651","","3","1","null","null","arrowup","[0.325,0.675,0.15,0.85]","","",""
"sailing-trial","99","826294","0.0-11.0-48.0","","","","false","","","","","","","","","","760.5999999046326","","765.9000000953674","","3","0","arrowright","1","arrowright","[0.325,0.675,0.15,0.85]","","",""
"sailing-trial","100","829373","0.0-11.0-49.0","","","","false","","","","","","","","","","null","","1164.7999997138977","","1","1","null","null","arrowup","[0.325,0.675,0.15,0.85]","","",""
"sailing-trial","101","834393","0.0-11.0-50.0","","","","false","","","","","","","","","","1366.0999999046326","","694.5999999046326","","3","1","arrowright","1","arrowright","[0.325,0.675,0.15,0.85]","","",""
"sailing-trial","102","837224","0.0-11.0-51.0","","","","false","","","","","","","","","","null","","944.9000000953674","","3","0","null","null","arrowup","[0.325,0.675,0.15,0.85]","","",""
"sailing-trial","103","841932","0.0-11.0-52.0","","","","false","","","","","","","","","","506.40000009536743","","347.40000009536743","","3","1","arrowright","1","arrowright","[0.325,0.675,0.15,0.85]","","",""
"sailing-trial","104","845702","0.0-11.0-53.0","","","","false","","","","","","","","","","null","","1806.0999999046326","","3","1","null","null","arrowup","[0.325,0.675,0.15,0.85]","","",""
"sailing-trial","105","849421","0.0-11.0-54.0","","","","false","","","","","","","","","","607.5999999046326","","223.69999980926514","","3","1","arrowright","1","arrowright","[0.15,0.85,0.325,0.675]","","",""
"sailing-trial","106","852094","0.0-11.0-55.0","","","","false","","","","","","","","","","null","","1167.7000002861023","","0","0","null","null","arrowup","[0.15,0.85,0.325,0.675]","","",""
"sailing-trial","107","855976","0.0-11.0-56.0","","","","false","","","","","","","","","","926.0999999046326","","20.5","","3","1","arrowright","1","arrowright","[0.15,0.85,0.325,0.675]","","",""
"sailing-trial","108","859061","0.0-11.0-57.0","","","","false","","","","","","","","","","null","","1172.5999999046326","","1","1","null","null","arrowup","[0.15,0.85,0.325,0.675]","","",""
"sailing-trial","109","862993","0.0-11.0-58.0","","","","false","","","","","","","","","","887.6999998092651","","647.6999998092651","","3","0","arrowright","1","arrowright","[0.15,0.85,0.325,0.675]","","",""
"sailing-trial","110","865913","0.0-11.0-59.0","","","","false","","","","","","","","","","null","","1117.5","","2","0","null","null","arrowup","[0.15,0.85,0.325,0.675]","","",""
"sailing-trial","111","870323","0.0-11.0-60.0","","","","false","","","","","","","","","","616.3999996185303","","440","","3","0","arrowright","1","arrowright","[0.15,0.85,0.325,0.675]","","",""
"sailing-trial","112","873406","0.0-11.0-61.0","","","","false","","","","","","","","","","null","","1125.8999996185303","","3","1","null","null","arrowup","[0.15,0.85,0.325,0.675]","","",""
"sailing-trial","113","877541","0.0-11.0-62.0","","","","false","","","","","","","","","","524.1000003814697","","645.1000003814697","","3","1","arrowright","1","arrowright","[0.15,0.85,0.325,0.675]","","",""
"sailing-trial","114","880274","0.0-11.0-63.0","","","","false","","","","","","","","","","null","","1158","","2","0","null","null","arrowup","[0.15,0.85,0.325,0.675]","","",""
"sailing-trial","115","884312","0.0-11.0-64.0","","","","false","","","","","","","","","","735.9000000953674","","356.80000019073486","","3","1","arrowright","1","arrowright","[0.15,0.85,0.325,0.675]","","",""
"sailing-trial","116","888164","0.0-11.0-65.0","","","","false","","","","","","","","","","null","","2489.5","","0","0","null","null","arrowup","[0.15,0.85,0.325,0.675]","","",""
"sailing-trial","117","892119","0.0-11.0-66.0","","","","false","","","","","","","","","","615.7999997138977","","439.2000002861023","","3","1","arrowright","1","arrowright","[0.15,0.85,0.325,0.675]","","",""
"sailing-trial","118","894594","0.0-11.0-67.0","","","","false","","","","","","","","","","null","","1140.4000000953674","","3","0","null","null","arrowup","[0.15,0.85,0.325,0.675]","","",""
"sailing-trial","119","898523","0.0-11.0-68.0","","","","false","","","","","","","","","","775.3000001907349","","112","","3","1","arrowright","1","arrowright","[0.15,0.85,0.325,0.675]","","",""
"sailing-trial","120","901510","0.0-11.0-69.0","","","","false","","","","","","","","","","null","","1016.5","","3","1","null","null","arrowup","[0.15,0.85,0.325,0.675]","","",""
"sailing-trial","121","905033","0.0-11.0-70.0","","","","false","","","","","","","","","","861","","86.69999980926514","","3","0","arrowright","1","arrowright","[0.15,0.85,0.325,0.675]","","",""
"sailing-trial","122","908145","0.0-11.0-71.0","","","","false","","","","","","","","","","null","","1166.5","","2","0","null","null","arrowup","[0.15,0.85,0.325,0.675]","","",""
"sailing-trial","123","912435","0.0-11.0-72.0","","","","false","","","","","","","","","","575.1999998092651","","479.40000009536743","","3","1","arrowright","1","arrowright","[0.15,0.85,0.325,0.675]","","",""
"sailing-trial","124","914815","0.0-11.0-73.0","","","","false","","","","","","","","","","null","","934.1000003814697","","1","0","null","null","arrowup","[0.15,0.85,0.325,0.675]","","",""
"sailing-trial","125","918973","0.0-11.0-74.0","","","","false","","","","","","","","","","454.2999997138977","","392.40000009536743","","3","1","arrowright","1","arrowright","[0.15,0.85,0.325,0.675]","","",""
"sailing-trial","126","923242","0.0-11.0-75.0","","","","false","","","","","","","","","","null","","996.1999998092651","","1","1","null","null","arrowup","[0.15,0.85,0.325,0.675]","","",""
"sailing-trial","127","926824","0.0-11.0-76.0","","","","false","","","","","","","","","","606.4000000953674","","242.90000009536743","","3","0","arrowright","1","arrowright","[0.675,0.325,0.85,0.15]","","",""
"sailing-trial","128","929813","0.0-11.0-77.0","","","","false","","","","","","","","","","null","","1025","","3","1","null","null","arrowup","[0.675,0.325,0.85,0.15]","","",""
"sailing-trial","129","932944","0.0-11.0-78.0","","","","false","","","","","","","","","","676.0999999046326","","11.699999809265137","","3","0","arrowright","1","arrowright","[0.675,0.325,0.85,0.15]","","",""
"sailing-trial","130","936370","0.0-11.0-79.0","","","","false","","","","","","","","","","null","","1244.7999997138977","","2","1","null","null","arrowup","[0.675,0.325,0.85,0.15]","","",""
"sailing-trial","131","940705","0.0-11.0-80.0","","","","false","","","","","","","","","","1058.5","","312.7999997138977","","0","1","arrowleft","0","arrowleft","[0.675,0.325,0.85,0.15]","","",""
"sailing-trial","132","943424","0.0-11.0-81.0","","","","false","","","","","","","","","","null","","894.5","","0","1","null","null","arrowup","[0.675,0.325,0.85,0.15]","","",""
"sailing-trial","133","947110","0.0-11.0-82.0","","","","false","","","","","","","","","","445.30000019073486","","412.19999980926514","","0","1","arrowleft","0","arrowleft","[0.675,0.325,0.85,0.15]","","",""
"sailing-trial","134","950012","0.0-11.0-83.0","","","","false","","","","","","","","","","null","","968.5","","1","1","null","null","arrowup","[0.675,0.325,0.85,0.15]","","",""
"sailing-trial","135","953818","0.0-11.0-84.0","","","","false","","","","","","","","","","647.5999999046326","","343.40000009536743","","0","1","arrowleft","0","arrowleft","[0.675,0.325,0.85,0.15]","","",""
"sailing-trial","136","956274","0.0-11.0-85.0","","","","false","","","","","","","","","","null","","931.1999998092651","","1","0","null","null","arrowup","[0.675,0.325,0.85,0.15]","","",""
"sailing-trial","137","960204","0.0-11.0-86.0","","","","false","","","","","","","","","","505.5","","508.7999997138977","","0","1","arrowleft","0","arrowleft","[0.675,0.325,0.85,0.15]","","",""
"sailing-trial","138","963025","0.0-11.0-87.0","","","","false","","","","","","","","","","null","","1025.1000003814697","","0","0","null","null","arrowup","[0.675,0.325,0.85,0.15]","","",""
"sailing-trial","139","966503","0.0-11.0-88.0","","","","false","","","","","","","","","","563.9000000953674","","24.5","","0","0","arrowleft","0","arrowleft","[0.675,0.325,0.85,0.15]","","",""
"sailing-trial","140","970043","0.0-11.0-89.0","","","","false","","","","","","","","","","null","","1644.0999999046326","","2","1","null","null","arrowup","[0.675,0.325,0.85,0.15]","","",""
"sailing-trial","141","973962","0.0-11.0-90.0","","","","false","","","","","","","","","","946.4000000953674","","59.299999713897705","","0","1","arrowleft","0","arrowleft","[0.675,0.325,0.85,0.15]","","",""
"sailing-trial","142","977324","0.0-11.0-91.0","","","","false","","","","","","","","","","null","","1215.5","","3","0","null","null","arrowup","[0.675,0.325,0.85,0.15]","","",""
"sailing-trial","143","982153","0.0-11.0-92.0","","","","false","","","","","","","","","","555.3000001907349","","1265.8000001907349","","0","1","arrowleft","0","arrowleft","[0.675,0.325,0.85,0.15]","","",""
"sailing-trial","144","984954","0.0-11.0-93.0","","","","false","","","","","","","","","","null","","826.8999996185303","","2","1","null","null","arrowup","[0.675,0.325,0.85,0.15]","","",""
"sailing-trial","145","989257","0.0-11.0-94.0","","","","false","","","","","","","","","","545.5999999046326","","799.4000000953674","","0","1","arrowleft","0","arrowleft","[0.675,0.325,0.85,0.15]","","",""
"sailing-trial","146","997233","0.0-11.0-95.0","","","","false","","","","","","","","","","null","","6454.099999904633","","0","0","null","null","arrowup","[0.675,0.325,0.85,0.15]","","",""
"sailing-trial","147","1000394","0.0-11.0-96.0","","","","false","","","","","","","","","","625.5","","68.80000019073486","","0","0","arrowleft","0","arrowleft","[0.15,0.85,0.325,0.675]","","",""
"sailing-trial","148","1003602","0.0-11.0-97.0","","","","false","","","","","","","","","","null","","935.3999996185303","","1","1","null","null","arrowup","[0.15,0.85,0.325,0.675]","","",""
"sailing-trial","149","1007715","0.0-11.0-98.0","","","","false","","","","","","","","","","896.3999996185303","","162.19999980926514","","0","0","arrowleft","0","arrowleft","[0.15,0.85,0.325,0.675]","","",""
"sailing-trial","150","1010690","0.0-11.0-99.0","","","","false","","","","","","","","","","null","","1084.8999996185303","","1","1","null","null","arrowup","[0.15,0.85,0.325,0.675]","","",""
"sailing-trial","151","1013916","0.0-11.0-100.0","","","","false","","","","","","","","","","609.0999999046326","","233","","2","0","arrowright","1","arrowleft","[0.15,0.85,0.325,0.675]","","",""
"sailing-trial","152","1017262","0.0-11.0-101.0","","","","false","","","","","","","","","","null","","1484.5","","3","1","null","null","arrowup","[0.15,0.85,0.325,0.675]","","",""
"sailing-trial","153","1021697","0.0-11.0-102.0","","","","false","","","","","","","","","","1088","","420.90000009536743","","1","1","arrowleft","0","arrowright","[0.15,0.85,0.325,0.675]","","",""
"sailing-trial","154","1024917","0.0-11.0-103.0","","","","false","","","","","","","","","","null","","1052.1000003814697","","1","1","null","null","arrowup","[0.15,0.85,0.325,0.675]","","",""
"sailing-trial","155","1030087","0.0-11.0-104.0","","","","false","","","","","","","","","","872.9000000953674","","1358.9000000953674","","1","1","arrowleft","0","arrowright","[0.15,0.85,0.325,0.675]","","",""
"sailing-trial","156","1032806","0.0-11.0-105.0","","","","false","","","","","","","","","","null","","841.3000001907349","","0","1","null","null","arrowup","[0.15,0.85,0.325,0.675]","","",""
"sailing-trial","157","1036443","0.0-11.0-106.0","","","","false","","","","","","","","","","723.4000000953674","","79.39999961853027","","1","1","arrowleft","0","arrowright","[0.15,0.85,0.325,0.675]","","",""
"sailing-trial","158","1039328","0.0-11.0-107.0","","","","false","","","","","","","","","","null","","976.7000002861023","","0","1","null","null","arrowup","[0.15,0.85,0.325,0.675]","","",""
"sailing-trial","159","1043380","0.0-11.0-108.0","","","","false","","","","","","","","","","741.7999997138977","","511.6000003814697","","1","1","arrowleft","0","arrowright","[0.15,0.85,0.325,0.675]","","",""
"sailing-trial","160","1045824","0.0-11.0-109.0","","","","false","","","","","","","","","","null","","939","","2","0","null","null","arrowup","[0.15,0.85,0.325,0.675]","","",""
"sailing-trial","161","1050051","0.0-11.0-110.0","","","","false","","","","","","","","","","696.0999999046326","","651.0999999046326","","1","1","arrowleft","0","arrowright","[0.15,0.85,0.325,0.675]","","",""
"sailing-trial","162","1052574","0.0-11.0-111.0","","","","false","","","","","","","","","","null","","867.2999997138977","","0","0","null","null","arrowup","[0.15,0.85,0.325,0.675]","","",""
"sailing-trial","163","1056323","0.0-11.0-112.0","","","","false","","","","","","","","","","625","","182.69999980926514","","1","1","arrowleft","0","arrowright","[0.15,0.85,0.325,0.675]","","",""
"sailing-trial","164","1059442","0.0-11.0-113.0","","","","false","","","","","","","","","","null","","836.5","","1","1","null","null","arrowup","[0.15,0.85,0.325,0.675]","","",""
"sailing-trial","165","1062978","0.0-11.0-114.0","","","","false","","","","","","","","","","527.4000000953674","","107.40000009536743","","1","1","arrowleft","0","arrowright","[0.15,0.85,0.325,0.675]","","",""
"sailing-trial","166","1065629","0.0-11.0-115.0","","","","false","","","","","","","","","","null","","801.5","","3","1","null","null","arrowup","[0.15,0.85,0.325,0.675]","","",""
"sailing-trial","167","1069198","0.0-11.0-116.0","","","","false","","","","","","","","","","599.1999998092651","","83.30000019073486","","1","1","arrowleft","0","arrowright","[0.325,0.675,0.15,0.85]","","",""
"sailing-trial","168","1071665","0.0-11.0-117.0","","","","false","","","","","","","","","","null","","1121.5","","0","0","null","null","arrowup","[0.325,0.675,0.15,0.85]","","",""
"sailing-trial","169","1075753","0.0-11.0-118.0","","","","false","","","","","","","","","","614.8000001907349","","660.8000001907349","","1","1","arrowleft","0","arrowright","[0.325,0.675,0.15,0.85]","","",""
"sailing-trial","170","1079922","0.0-11.0-119.0","","","","false","","","","","","","","","","null","","2116.5","","1","1","null","null","arrowup","[0.325,0.675,0.15,0.85]","","",""
"sailing-trial","171","1083992","0.0-11.0-120.0","","","","false","","","","","","","","","","908","","319.90000009536743","","1","1","arrowleft","0","arrowright","[0.325,0.675,0.15,0.85]","","",""
"sailing-trial","172","1086761","0.0-11.0-121.0","","","","false","","","","","","","","","","null","","917.5999999046326","","1","1","null","null","arrowup","[0.325,0.675,0.15,0.85]","","",""
"sailing-trial","173","1089635","0.0-11.0-122.0","","","","false","","","","","","","","","","388.09999990463257","","68.40000009536743","","1","0","arrowleft","0","arrowright","[0.325,0.675,0.15,0.85]","","",""
"sailing-trial","174","1093132","0.0-11.0-123.0","","","","false","","","","","","","","","","null","","1484.7999997138977","","3","1","null","null","arrowup","[0.325,0.675,0.15,0.85]","","",""
"sailing-trial","175","1097935","0.0-11.0-124.0","","","","false","","","","","","","","","","987.8999996185303","","656.8999996185303","","1","1","arrowleft","0","arrowright","[0.325,0.675,0.15,0.85]","","",""
"sailing-trial","176","1100805","0.0-11.0-125.0","","","","false","","","","","","","","","","null","","1074.8999996185303","","3","1","null","null","arrowup","[0.325,0.675,0.15,0.85]","","",""
"sailing-trial","177","1104423","0.0-11.0-126.0","","","","false","","","","","","","","","","707.3000001907349","","18.40000009536743","","1","1","arrowleft","0","arrowright","[0.325,0.675,0.15,0.85]","","",""
"sailing-trial","178","1106684","0.0-11.0-127.0","","","","false","","","","","","","","","","null","","765.9000000953674","","0","0","null","null","arrowup","[0.325,0.675,0.15,0.85]","","",""
"sailing-trial","179","1110778","0.0-11.0-128.0","","","","false","","","","","","","","","","644.5","","541.2999997138977","","1","1","arrowleft","0","arrowright","[0.325,0.675,0.15,0.85]","","",""
"sailing-trial","180","1113084","0.0-11.0-129.0","","","","false","","","","","","","","","","null","","1031.6999998092651","","2","0","null","null","arrowup","[0.325,0.675,0.15,0.85]","","",""
"sailing-trial","181","1117416","0.0-11.0-130.0","","","","false","","","","","","","","","","804.4000000953674","","695.6999998092651","","1","1","arrowleft","0","arrowright","[0.325,0.675,0.15,0.85]","","",""
"sailing-trial","182","1119983","0.0-11.0-131.0","","","","false","","","","","","","","","","null","","1151.9000000953674","","2","0","null","null","arrowup","[0.325,0.675,0.15,0.85]","","",""
"sailing-trial","183","1124304","0.0-11.0-132.0","","","","false","","","","","","","","","","956.1000003814697","","496.90000009536743","","1","1","arrowleft","0","arrowright","[0.325,0.675,0.15,0.85]","","",""
"sailing-trial","184","1126956","0.0-11.0-133.0","","","","false","","","","","","","","","","null","","813.5","","0","1","null","null","arrowup","[0.325,0.675,0.15,0.85]","","",""
"sailing-trial","185","1131159","0.0-11.0-134.0","","","","false","","","","","","","","","","892.5999999046326","","512.0999999046326","","1","1","arrowleft","0","arrowright","[0.325,0.675,0.15,0.85]","","",""
"sailing-trial","186","1133423","0.0-11.0-135.0","","","","false","","","","","","","","","","null","","900","","1","0","null","null","arrowup","[0.325,0.675,0.15,0.85]","","",""
"sailing-trial","187","1137580","0.0-11.0-136.0","","","","false","","","","","","","","","","676.5","","667.7000002861023","","1","1","arrowleft","0","arrowright","[0.15,0.85,0.325,0.675]","","",""
"sailing-trial","188","1140867","0.0-11.0-137.0","","","","false","","","","","","","","","","null","","1218.4000000953674","","3","1","null","null","arrowup","[0.15,0.85,0.325,0.675]","","",""
"sailing-trial","189","1144902","0.0-11.0-138.0","","","","false","","","","","","","","","","652.3000001907349","","400.59999990463257","","1","1","arrowleft","0","arrowright","[0.15,0.85,0.325,0.675]","","",""
"sailing-trial","190","1147394","0.0-11.0-139.0","","","","false","","","","","","","","","","null","","976.2000002861023","","2","0","null","null","arrowup","[0.15,0.85,0.325,0.675]","","",""
"sailing-trial","191","1150957","0.0-11.0-140.0","","","","false","","","","","","","","","","595.0999999046326","","7.5","","1","1","arrowleft","0","arrowright","[0.15,0.85,0.325,0.675]","","",""
"sailing-trial","192","1153284","0.0-11.0-141.0","","","","false","","","","","","","","","","null","","741.7999997138977","","2","0","null","null","arrowup","[0.15,0.85,0.325,0.675]","","",""
"sailing-trial","193","1157063","0.0-11.0-142.0","","","","false","","","","","","","","","","845.5999999046326","","29.40000009536743","","1","1","arrowleft","0","arrowright","[0.15,0.85,0.325,0.675]","","",""
"sailing-trial","194","1159354","0.0-11.0-143.0","","","","false","","","","","","","","","","null","","776.0999999046326","","0","0","null","null","arrowup","[0.15,0.85,0.325,0.675]","","",""
"sailing-trial","195","1163383","0.0-11.0-144.0","","","","false","","","","","","","","","","695.2000002861023","","505.90000009536743","","1","1","arrowleft","0","arrowright","[0.15,0.85,0.325,0.675]","","",""
"sailing-trial","196","1166201","0.0-11.0-145.0","","","","false","","","","","","","","","","null","","897.0999999046326","","1","1","null","null","arrowup","[0.15,0.85,0.325,0.675]","","",""
"sailing-trial","197","1170189","0.0-11.0-146.0","","","","false","","","","","","","","","","539.5999999046326","","541.4000000953674","","1","1","arrowleft","0","arrowright","[0.15,0.85,0.325,0.675]","","",""
"sailing-trial","198","1173340","0.0-11.0-147.0","","","","false","","","","","","","","","","null","","1200","","1","1","null","null","arrowup","[0.15,0.85,0.325,0.675]","","",""
"sailing-trial","199","1177193","0.0-11.0-148.0","","","","false","","","","","","","","","","760.6999998092651","","156.5","","1","0","arrowleft","0","arrowright","[0.15,0.85,0.325,0.675]","","",""
"sailing-trial","200","1180145","0.0-11.0-149.0","","","","false","","","","","","","","","","null","","1005.5999999046326","","3","1","null","null","arrowup","[0.15,0.85,0.325,0.675]","","",""
"sailing-trial","201","1184331","0.0-11.0-150.0","","","","false","","","","","","","","","","684.2999997138977","","644.0999999046326","","1","1","arrowleft","0","arrowright","[0.15,0.85,0.325,0.675]","","",""
"sailing-trial","202","1187101","0.0-11.0-151.0","","","","false","","","","","","","","","","null","","907.4000000953674","","3","1","null","null","arrowup","[0.15,0.85,0.325,0.675]","","",""
"sailing-trial","203","1190935","0.0-11.0-152.0","","","","false","","","","","","","","","","578.5","","780.2000002861023","","1","0","arrowleft","0","arrowright","[0.85,0.15,0.675,0.325]","","",""
"sailing-trial","204","1193594","0.0-11.0-153.0","","","","false","","","","","","","","","","null","","946.2000002861023","","2","0","null","null","arrowup","[0.85,0.15,0.675,0.325]","","",""
"sailing-trial","205","1197245","0.0-11.0-154.0","","","","false","","","","","","","","","","684.7000002861023","","490.69999980926514","","1","0","arrowleft","0","arrowright","[0.85,0.15,0.675,0.325]","","",""
"sailing-trial","206","1200643","0.0-11.0-155.0","","","","false","","","","","","","","","","null","","1053.8000001907349","","3","1","null","null","arrowup","[0.85,0.15,0.675,0.325]","","",""
"sailing-trial","207","1204362","0.0-11.0-156.0","","","","false","","","","","","","","","","1076.3000001907349","","208.19999980926514","","2","0","arrowright","1","arrowleft","[0.85,0.15,0.675,0.325]","","",""
"sailing-trial","208","1207851","0.0-11.0-157.0","","","","false","","","","","","","","","","null","","1628.3000001907349","","0","1","null","null","arrowup","[0.85,0.15,0.675,0.325]","","",""
"sailing-trial","209","1211854","0.0-11.0-158.0","","","","false","","","","","","","","","","1179.5","","318.3999996185303","","1","0","arrowleft","0","arrowright","[0.85,0.15,0.675,0.325]","","",""
"sailing-trial","210","1214822","0.0-11.0-159.0","","","","false","","","","","","","","","","null","","996","","2","1","null","null","arrowup","[0.85,0.15,0.675,0.325]","","",""
"sailing-trial","211","1220877","0.0-11.0-160.0","","","","false","","","","","","","","","","1436.9000000953674","","1677.0999999046326","","3","1","arrowright","1","arrowright","[0.85,0.15,0.675,0.325]","","",""
"sailing-trial","212","1223546","0.0-11.0-161.0","","","","false","","","","","","","","","","null","","842.5","","2","1","null","null","arrowup","[0.85,0.15,0.675,0.325]","","",""
"sailing-trial","213","1227616","0.0-11.0-162.0","","","","false","","","","","","","","","","504.59999990463257","","540.2999997138977","","3","1","arrowright","1","arrowright","[0.85,0.15,0.675,0.325]","","",""
"sailing-trial","214","1230718","0.0-11.0-163.0","","","","false","","","","","","","","","","null","","1284","","0","1","null","null","arrowup","[0.85,0.15,0.675,0.325]","","",""
"sailing-trial","215","1234715","0.0-11.0-164.0","","","","false","","","","","","","","","","501.90000009536743","","474.80000019073486","","3","0","arrowright","1","arrowright","[0.85,0.15,0.675,0.325]","","",""
"sailing-trial","216","1237506","0.0-11.0-165.0","","","","false","","","","","","","","","","null","","957.5","","0","1","null","null","arrowup","[0.85,0.15,0.675,0.325]","","",""
"sailing-trial","217","1241476","0.0-11.0-166.0","","","","false","","","","","","","","","","683.5","","452.8999996185303","","3","1","arrowright","1","arrowright","[0.85,0.15,0.675,0.325]","","",""
"sailing-trial","218","1244378","0.0-11.0-167.0","","","","false","","","","","","","","","","null","","1144.0999999046326","","1","1","null","null","arrowup","[0.85,0.15,0.675,0.325]","","",""
"sailing-trial","219","1248015","0.0-11.0-168.0","","","","false","","","","","","","","","","480.09999990463257","","332.19999980926514","","3","1","arrowright","1","arrowright","[0.85,0.15,0.675,0.325]","","",""
"sailing-trial","220","1250365","0.0-11.0-169.0","","","","false","","","","","","","","","","null","","985.0999999046326","","2","0","null","null","arrowup","[0.85,0.15,0.675,0.325]","","",""
"sailing-trial","221","1253845","0.0-11.0-170.0","","","","false","","","","","","","","","","525.6999998092651","","484.90000009536743","","3","0","arrowright","1","arrowright","[0.675,0.325,0.85,0.15]","","",""
"sailing-trial","222","1257620","0.0-11.0-171.0","","","","false","","","","","","","","","","null","","1824.5","","3","1","null","null","arrowup","[0.675,0.325,0.85,0.15]","","",""
"sailing-trial","223","1263163","0.0-11.0-172.0","","","","false","","","","","","","","","","1569.5","","1556.8000001907349","","0","0","arrowleft","0","arrowleft","[0.675,0.325,0.85,0.15]","","",""
"sailing-trial","224","1266160","0.0-11.0-173.0","","","","false","","","","","","","","","","null","","1117.4000000953674","","2","1","null","null","arrowup","[0.675,0.325,0.85,0.15]","","",""
"sailing-trial","225","1269624","0.0-11.0-174.0","","","","false","","","","","","","","","","1029.7000002861023","","118.80000019073486","","3","0","arrowright","1","arrowright","[0.675,0.325,0.85,0.15]","","",""
"sailing-trial","226","1272681","0.0-11.0-175.0","","","","false","","","","","","","","","","null","","1225.8000001907349","","0","1","null","null","arrowup","[0.675,0.325,0.85,0.15]","","",""
"sailing-trial","227","1277118","0.0-11.0-176.0","","","","false","","","","","","","","","","777.3999996185303","","497.80000019073486","","2","1","arrowright","1","arrowleft","[0.675,0.325,0.85,0.15]","","",""
"sailing-trial","228","1280487","0.0-11.0-177.0","","","","false","","","","","","","","","","null","","1530.8999996185303","","0","1","null","null","arrowup","[0.675,0.325,0.85,0.15]","","",""
"sailing-trial","229","1283574","0.0-11.0-178.0","","","","false","","","","","","","","","","632.2999997138977","","66.09999990463257","","2","0","arrowright","1","arrowleft","[0.675,0.325,0.85,0.15]","","",""
"sailing-trial","230","1286484","0.0-11.0-179.0","","","","false","","","","","","","","","","null","","975.4000000953674","","3","0","null","null","arrowup","[0.675,0.325,0.85,0.15]","","",""
"sailing-trial","231","1290674","0.0-11.0-180.0","","","","false","","","","","","","","","","1265.6000003814697","","570.2999997138977","","0","0","arrowleft","0","arrowleft","[0.675,0.325,0.85,0.15]","","",""
"sailing-trial","232","1293514","0.0-11.0-181.0","","","","false","","","","","","","","","","null","","1105.3999996185303","","0","0","null","null","arrowup","[0.675,0.325,0.85,0.15]","","",""
"sailing-trial","233","1297425","0.0-11.0-182.0","","","","false","","","","","","","","","","1025.2000002861023","","195.59999990463257","","1","0","arrowleft","0","arrowright","[0.675,0.325,0.85,0.15]","","",""
"sailing-trial","234","1300252","0.0-11.0-183.0","","","","false","","","","","","","","","","null","","994.7000002861023","","0","1","null","null","arrowup","[0.675,0.325,0.85,0.15]","","",""
"sailing-trial","235","1304972","0.0-11.0-184.0","","","","false","","","","","","","","","","1098.3000001907349","","740.9000000953674","","2","1","arrowright","1","arrowleft","[0.675,0.325,0.85,0.15]","","",""
"sailing-trial","236","1307434","0.0-11.0-185.0","","","","false","","","","","","","","","","null","","1077.4000000953674","","3","0","null","null","arrowup","[0.675,0.325,0.85,0.15]","","",""
"sailing-trial","237","1311076","0.0-11.0-186.0","","","","false","","","","","","","","","","605.8000001907349","","12","","2","1","arrowright","1","arrowleft","[0.675,0.325,0.85,0.15]","","",""
"sailing-trial","238","1313878","0.0-11.0-187.0","","","","false","","","","","","","","","","null","","959.9000000953674","","2","1","null","null","arrowup","[0.675,0.325,0.85,0.15]","","",""
"sailing-trial","239","1317581","0.0-11.0-188.0","","","","false","","","","","","","","","","611.5999999046326","","131.80000019073486","","2","1","arrowright","1","arrowleft","[0.675,0.325,0.85,0.15]","","",""
"sailing-trial","240","1320449","0.0-11.0-189.0","","","","false","","","","","","","","","","null","","979.0999999046326","","0","1","null","null","arrowup","[0.675,0.325,0.85,0.15]","","",""
"sailing-trial","241","1324152","0.0-11.0-190.0","","","","false","","","","","","","","","","691","","219.09999990463257","","2","1","arrowright","1","arrowleft","[0.675,0.325,0.85,0.15]","","",""
"sailing-trial","242","1326563","0.0-11.0-191.0","","","","false","","","","","","","","","","null","","1049.8000001907349","","1","0","null","null","arrowup","[0.675,0.325,0.85,0.15]","","",""
"sailing-trial","243","1330223","0.0-11.0-192.0","","","","false","","","","","","","","","","587.0999999046326","","233.59999990463257","","2","1","arrowright","1","arrowleft","[0.675,0.325,0.85,0.15]","","",""
"sailing-trial","244","1333041","0.0-11.0-193.0","","","","false","","","","","","","","","","null","","1014.8000001907349","","2","1","null","null","arrowup","[0.675,0.325,0.85,0.15]","","",""
"sailing-trial","245","1336878","0.0-11.0-194.0","","","","false","","","","","","","","","","807.5","","150.30000019073486","","2","1","arrowright","1","arrowleft","[0.85,0.15,0.675,0.325]","","",""
"sailing-trial","246","1339483","0.0-11.0-195.0","","","","false","","","","","","","","","","null","","1080.6000003814697","","1","0","null","null","arrowup","[0.85,0.15,0.675,0.325]","","",""
"sailing-trial","247","1343132","0.0-11.0-196.0","","","","false","","","","","","","","","","682.6999998092651","","9.299999713897705","","2","1","arrowright","1","arrowleft","[0.85,0.15,0.675,0.325]","","",""
"sailing-trial","248","1346552","0.0-11.0-197.0","","","","false","","","","","","","","","","null","","1117.3999996185303","","3","1","null","null","arrowup","[0.85,0.15,0.675,0.325]","","",""
"sailing-trial","249","1351488","0.0-11.0-198.0","","","","false","","","","","","","","","","1587.6000003814697","","577.5999999046326","","2","1","arrowright","1","arrowleft","[0.85,0.15,0.675,0.325]","","",""
"sailing-trial","250","1354375","0.0-11.0-199.0","","","","false","","","","","","","","","","null","","1031.4000000953674","","1","1","null","null","arrowup","[0.85,0.15,0.675,0.325]","","",""
"sailing-trial","251","1358476","0.0-11.0-200.0","","","","false","","","","","","","","","","644.1999998092651","","29.09999990463257","","2","1","arrowright","1","arrowleft","[0.85,0.15,0.675,0.325]","","",""
"sailing-trial","252","1360844","0.0-11.0-201.0","","","","false","","","","","","","","","","null","","812.6999998092651","","0","0","null","null","arrowup","[0.85,0.15,0.675,0.325]","","",""
"sailing-trial","253","1364915","0.0-11.0-202.0","","","","false","","","","","","","","","","605.0999999046326","","557.2999997138977","","2","1","arrowright","1","arrowleft","[0.85,0.15,0.675,0.325]","","",""
"sailing-trial","254","1368633","0.0-11.0-203.0","","","","false","","","","","","","","","","null","","2244.0999999046326","","3","0","null","null","arrowup","[0.85,0.15,0.675,0.325]","","",""
"sailing-trial","255","1372954","0.0-11.0-204.0","","","","false","","","","","","","","","","796.5999999046326","","679.0999999046326","","2","1","arrowright","1","arrowleft","[0.85,0.15,0.675,0.325]","","",""
"sailing-trial","256","1375788","0.0-11.0-205.0","","","","false","","","","","","","","","","null","","955","","2","1","null","null","arrowup","[0.85,0.15,0.675,0.325]","","",""
"sailing-trial","257","1380025","0.0-11.0-206.0","","","","false","","","","","","","","","","1071.5","","149.90000009536743","","2","1","arrowright","1","arrowleft","[0.85,0.15,0.675,0.325]","","",""
"sailing-trial","258","1382904","0.0-11.0-207.0","","","","false","","","","","","","","","","null","","1463.9000000953674","","3","0","null","null","arrowup","[0.85,0.15,0.675,0.325]","","",""
"sailing-trial","259","1386864","0.0-11.0-208.0","","","","false","","","","","","","","","","726","","188.5","","2","1","arrowright","1","arrowleft","[0.85,0.15,0.675,0.325]","","",""
"sailing-trial","260","1389916","0.0-11.0-209.0","","","","false","","","","","","","","","","null","","1034.5","","0","1","null","null","arrowup","[0.85,0.15,0.675,0.325]","","",""
"sailing-trial","261","1393095","0.0-11.0-210.0","","","","false","","","","","","","","","","684.3000001907349","","88.30000019073486","","2","0","arrowright","1","arrowleft","[0.85,0.15,0.675,0.325]","","",""
"sailing-trial","262","1395625","0.0-11.0-211.0","","","","false","","","","","","","","","","null","","1144.8000001907349","","1","0","null","null","arrowup","[0.85,0.15,0.675,0.325]","","",""
"sailing-trial","263","1399042","0.0-11.0-212.0","","","","false","","","","","","","","","","555.0999999046326","","15.599999904632568","","2","1","arrowright","1","arrowleft","[0.675,0.325,0.85,0.15]","","",""
"sailing-trial","264","1401708","0.0-11.0-213.0","","","","false","","","","","","","","","","null","","997.6999998092651","","0","1","null","null","arrowup","[0.675,0.325,0.85,0.15]","","",""
"sailing-trial","265","1405627","0.0-11.0-214.0","","","","false","","","","","","","","","","982.7000002861023","","0.7999997138977051","","2","1","arrowright","1","arrowleft","[0.675,0.325,0.85,0.15]","","",""
"sailing-trial","266","1408379","0.0-11.0-215.0","","","","false","","","","","","","","","","null","","912.0999999046326","","2","1","null","null","arrowup","[0.675,0.325,0.85,0.15]","","",""
"sailing-trial","267","1411334","0.0-11.0-216.0","","","","false","","","","","","","","","","571.1999998092651","","26.5","","2","0","arrowright","1","arrowleft","[0.675,0.325,0.85,0.15]","","",""
"sailing-trial","268","1413704","0.0-11.0-217.0","","","","false","","","","","","","","","","null","","1085.1999998092651","","3","0","null","null","arrowup","[0.675,0.325,0.85,0.15]","","",""
"sailing-trial","269","1417671","0.0-11.0-218.0","","","","false","","","","","","","","","","587.3000001907349","","528.8999996185303","","2","1","arrowright","1","arrowleft","[0.675,0.325,0.85,0.15]","","",""
"sailing-trial","270","1420756","0.0-11.0-219.0","","","","false","","","","","","","","","","null","","999.1999998092651","","2","1","null","null","arrowup","[0.675,0.325,0.85,0.15]","","",""
"sailing-trial","271","1424409","0.0-11.0-220.0","","","","false","","","","","","","","","","624.2000002861023","","110.69999980926514","","2","1","arrowright","1","arrowleft","[0.675,0.325,0.85,0.15]","","",""
"sailing-trial","272","1427411","0.0-11.0-221.0","","","","false","","","","","","","","","","null","","981.9000000953674","","1","1","null","null","arrowup","[0.675,0.325,0.85,0.15]","","",""
"sailing-trial","273","1432414","0.0-11.0-222.0","","","","false","","","","","","","","","","891.0999999046326","","1019.5999999046326","","2","1","arrowright","1","arrowleft","[0.675,0.325,0.85,0.15]","","",""
"sailing-trial","274","1436317","0.0-11.0-223.0","","","","false","","","","","","","","","","null","","1588.9000000953674","","0","1","null","null","arrowup","[0.675,0.325,0.85,0.15]","","",""
"sailing-trial","275","1440003","0.0-11.0-224.0","","","","false","","","","","","","","","","722.5999999046326","","150.30000019073486","","2","1","arrowright","1","arrowleft","[0.675,0.325,0.85,0.15]","","",""
"sailing-trial","276","1443224","0.0-11.0-225.0","","","","false","","","","","","","","","","null","","976.9000000953674","","0","0","null","null","arrowup","[0.675,0.325,0.85,0.15]","","",""
"sailing-trial","277","1449277","0.0-11.0-226.0","","","","false","","","","","","","","","","766.1999998092651","","2527.300000190735","","2","1","arrowright","1","arrowleft","[0.675,0.325,0.85,0.15]","","",""
"sailing-trial","278","1451598","0.0-11.0-227.0","","","","false","","","","","","","","","","null","","1015.4000000953674","","3","0","null","null","arrowup","[0.675,0.325,0.85,0.15]","","",""
"sailing-trial","279","1454514","0.0-11.0-228.0","","","","false","","","","","","","","","","512","","21.899999618530273","","2","0","arrowright","1","arrowleft","[0.325,0.675,0.15,0.85]","","",""
"sailing-trial","280","1457082","0.0-11.0-229.0","","","","false","","","","","","","","","","null","","805","","3","1","null","null","arrowup","[0.325,0.675,0.15,0.85]","","",""
"sailing-trial","281","1460425","0.0-11.0-230.0","","","","false","","","","","","","","","","1008.5","","30.5","","2","0","arrowright","1","arrowleft","[0.325,0.675,0.15,0.85]","","",""
"sailing-trial","282","1464070","0.0-11.0-231.0","","","","false","","","","","","","","","","null","","1136","","1","1","null","null","arrowup","[0.325,0.675,0.15,0.85]","","",""
"sailing-trial","283","1468373","0.0-11.0-232.0","","","","false","","","","","","","","","","1380.9000000953674","","18.799999713897705","","3","1","arrowright","1","arrowright","[0.325,0.675,0.15,0.85]","","",""
"sailing-trial","284","1471292","0.0-11.0-233.0","","","","false","","","","","","","","","","null","","1077","","3","1","null","null","arrowup","[0.325,0.675,0.15,0.85]","","",""
"sailing-trial","285","1474944","0.0-11.0-234.0","","","","false","","","","","","","","","","598.3000001907349","","251","","3","1","arrowright","1","arrowright","[0.325,0.675,0.15,0.85]","","",""
"sailing-trial","286","1477545","0.0-11.0-235.0","","","","false","","","","","","","","","","null","","1226.2999997138977","","2","0","null","null","arrowup","[0.325,0.675,0.15,0.85]","","",""
"sailing-trial","287","1481766","0.0-11.0-236.0","","","","false","","","","","","","","","","425.3999996185303","","423.40000009536743","","3","1","arrowright","1","arrowright","[0.325,0.675,0.15,0.85]","","",""
"sailing-trial","288","1484569","0.0-11.0-237.0","","","","false","","","","","","","","","","null","","1014.5999999046326","","1","1","null","null","arrowup","[0.325,0.675,0.15,0.85]","","",""
"sailing-trial","289","1488295","0.0-11.0-238.0","","","","false","","","","","","","","","","611.1000003814697","","738.9000000953674","","3","0","arrowright","1","arrowright","[0.325,0.675,0.15,0.85]","","",""
"sailing-trial","290","1490565","0.0-11.0-239.0","","","","false","","","","","","","","","","null","","875","","2","0","null","null","arrowup","[0.325,0.675,0.15,0.85]","","",""
"sailing-trial","291","1494509","0.0-11.0-240.0","","","","false","","","","","","","","","","554.7000002861023","","461.19999980926514","","3","1","arrowright","1","arrowright","[0.325,0.675,0.15,0.85]","","",""
"sailing-trial","292","1496815","0.0-11.0-241.0","","","","false","","","","","","","","","","null","","1091.5999999046326","","2","0","null","null","arrowup","[0.325,0.675,0.15,0.85]","","",""
"sailing-trial","293","1500429","0.0-11.0-242.0","","","","false","","","","","","","","","","385.7000002861023","","383.1000003814697","","3","1","arrowright","1","arrowright","[0.325,0.675,0.15,0.85]","","",""
"sailing-trial","294","1504382","0.0-11.0-243.0","","","","false","","","","","","","","","","null","","2171.6000003814697","","3","1","null","null","arrowup","[0.325,0.675,0.15,0.85]","","",""
"sailing-trial","295","1508686","0.0-11.0-244.0","","","","false","","","","","","","","","","1128","","180.2999997138977","","3","1","arrowright","1","arrowright","[0.325,0.675,0.15,0.85]","","",""
"sailing-trial","296","1511506","0.0-11.0-245.0","","","","false","","","","","","","","","","null","","964","","0","1","null","null","arrowup","[0.325,0.675,0.15,0.85]","","",""
"sailing-trial","297","1515165","0.0-11.0-246.0","","","","false","","","","","","","","","","734.4000000953674","","115.59999990463257","","3","0","arrowright","1","arrowright","[0.15,0.85,0.325,0.675]","","",""
"sailing-trial","298","1517992","0.0-11.0-247.0","","","","false","","","","","","","","","","null","","975.1999998092651","","2","1","null","null","arrowup","[0.15,0.85,0.325,0.675]","","",""
"sailing-trial","299","1523213","0.0-11.0-248.0","","","","false","","","","","","","","","","958.3000001907349","","491.40000009536743","","3","1","arrowright","1","arrowright","[0.15,0.85,0.325,0.675]","","",""
"sailing-trial","300","1526082","0.0-11.0-249.0","","","","false","","","","","","","","","","null","","856","","0","1","null","null","arrowup","[0.15,0.85,0.325,0.675]","","",""
"sailing-trial","301","1530953","0.0-11.0-250.0","","","","false","","","","","","","","","","637.9000000953674","","739.6999998092651","","3","1","arrowright","1","arrowright","[0.15,0.85,0.325,0.675]","","",""
"sailing-trial","302","1534406","0.0-11.0-251.0","","","","false","","","","","","","","","","null","","1196.0999999046326","","0","1","null","null","arrowup","[0.15,0.85,0.325,0.675]","","",""
"sailing-trial","303","1538292","0.0-11.0-252.0","","","","false","","","","","","","","","","753.7999997138977","","405.8999996185303","","3","1","arrowright","1","arrowright","[0.15,0.85,0.325,0.675]","","",""
"sailing-trial","304","1540961","0.0-11.0-253.0","","","","false","","","","","","","","","","null","","846.8000001907349","","3","1","null","null","arrowup","[0.15,0.85,0.325,0.675]","","",""
"sailing-trial","305","1545298","0.0-11.0-254.0","","","","false","","","","","","","","","","888.2999997138977","","348.30000019073486","","3","1","arrowright","1","arrowright","[0.15,0.85,0.325,0.675]","","",""
"sailing-trial","306","1549884","0.0-11.0-255.0","","","","false","","","","","","","","","","null","","2511.4000000953674","","3","1","null","null","arrowup","[0.15,0.85,0.325,0.675]","","",""
"sailing-trial","307","1555239","0.0-11.0-256.0","","","","false","","","","","","","","","","975.9000000953674","","631","","3","1","arrowright","1","arrowright","[0.15,0.85,0.325,0.675]","","",""
"sailing-trial","308","1560826","0.0-11.0-257.0","","","","false","","","","","","","","","","null","","3760.2999997138977","","2","1","null","null","arrowup","[0.15,0.85,0.325,0.675]","","",""
"sailing-trial","309","1566204","0.0-11.0-258.0","","","","false","","","","","","","","","","685.5999999046326","","1762.9000000953674","","3","0","arrowright","1","arrowright","[0.15,0.85,0.325,0.675]","","",""
"sailing-trial","310","1568633","0.0-11.0-259.0","","","","false","","","","","","","","","","null","","934.0999999046326","","2","0","null","null","arrowup","[0.15,0.85,0.325,0.675]","","",""
"sailing-trial","311","1572918","0.0-11.0-260.0","","","","false","","","","","","","","","","918.7999997138977","","346.90000009536743","","3","1","arrowright","1","arrowright","[0.15,0.85,0.325,0.675]","","",""
"sailing-trial","312","1575203","0.0-11.0-261.0","","","","false","","","","","","","","","","null","","1021.1000003814697","","0","0","null","null","arrowup","[0.15,0.85,0.325,0.675]","","",""
"sailing-trial","313","1579006","0.0-11.0-262.0","","","","false","","","","","","","","","","446.30000019073486","","409.3999996185303","","3","1","arrowright","1","arrowright","[0.15,0.85,0.325,0.675]","","",""
"sailing-trial","314","1583227","0.0-11.0-263.0","","","","false","","","","","","","","","","null","","2013.7999997138977","","3","1","null","null","arrowup","[0.15,0.85,0.325,0.675]","","",""
"sailing-trial","315","1587296","0.0-11.0-264.0","","","","false","","","","","","","","","","721.9000000953674","","133.39999961853027","","3","1","arrowright","1","arrowright","[0.15,0.85,0.325,0.675]","","",""
"sailing-trial","316","1591015","0.0-11.0-265.0","","","","false","","","","","","","","","","null","","1523.4000000953674","","1","1","null","null","arrowup","[0.15,0.85,0.325,0.675]","","",""
"sailing-trial","317","1595055","0.0-11.0-266.0","","","","false","","","","","","","","","","604.3999996185303","","249.5","","3","0","arrowright","1","arrowright","[0.15,0.85,0.325,0.675]","","",""
"sailing-trial","318","1598656","0.0-11.0-267.0","","","","false","","","","","","","","","","null","","1694.3000001907349","","3","1","null","null","arrowup","[0.15,0.85,0.325,0.675]","","",""
"sailing-trial","319","1602134","0.0-11.0-268.0","","","","false","","","","","","","","","","663.8000001907349","","261.2000002861023","","3","0","arrowright","1","arrowright","[0.325,0.675,0.15,0.85]","","",""
"sailing-trial","320","1605983","0.0-11.0-269.0","","","","false","","","","","","","","","","null","","2224.9000000953674","","1","0","null","null","arrowup","[0.325,0.675,0.15,0.85]","","",""
"sailing-trial","321","1610630","0.0-11.0-270.0","","","","false","","","","","","","","","","915.6999998092651","","583","","0","1","arrowleft","0","arrowleft","[0.325,0.675,0.15,0.85]","","",""
"sailing-trial","322","1613482","0.0-11.0-271.0","","","","false","","","","","","","","","","null","","1009.6999998092651","","2","1","null","null","arrowup","[0.325,0.675,0.15,0.85]","","",""
"sailing-trial","323","1617485","0.0-11.0-272.0","","","","false","","","","","","","","","","617.8999996185303","","404.5","","0","1","arrowleft","0","arrowleft","[0.325,0.675,0.15,0.85]","","",""
"sailing-trial","324","1619906","0.0-11.0-273.0","","","","false","","","","","","","","","","null","","774.5","","0","0","null","null","arrowup","[0.325,0.675,0.15,0.85]","","",""
"sailing-trial","325","1623557","0.0-11.0-274.0","","","","false","","","","","","","","","","494.2000002861023","","210","","0","1","arrowleft","0","arrowleft","[0.325,0.675,0.15,0.85]","","",""
"sailing-trial","326","1626137","0.0-11.0-275.0","","","","false","","","","","","","","","","null","","883.2999997138977","","2","0","null","null","arrowup","[0.325,0.675,0.15,0.85]","","",""
"sailing-trial","327","1630262","0.0-11.0-276.0","","","","false","","","","","","","","","","653.6999998092651","","610.9000000953674","","0","1","arrowleft","0","arrowleft","[0.325,0.675,0.15,0.85]","","",""
"sailing-trial","328","1633815","0.0-11.0-277.0","","","","false","","","","","","","","","","null","","1297.7999997138977","","2","0","null","null","arrowup","[0.325,0.675,0.15,0.85]","","",""
"sailing-trial","329","1638470","0.0-11.0-278.0","","","","false","","","","","","","","","","645.8999996185303","","8","","0","1","arrowleft","0","arrowleft","[0.325,0.675,0.15,0.85]","","",""
"sailing-trial","330","1641115","0.0-11.0-279.0","","","","false","","","","","","","","","","null","","1050.1999998092651","","1","0","null","null","arrowup","[0.325,0.675,0.15,0.85]","","",""
"sailing-trial","331","1646177","0.0-11.0-280.0","","","","false","","","","","","","","","","815.8999996185303","","1021.7999997138977","","0","1","arrowleft","0","arrowleft","[0.325,0.675,0.15,0.85]","","",""
"sailing-trial","332","1650128","0.0-11.0-281.0","","","","false","","","","","","","","","","null","","1982.6999998092651","","1","1","null","null","arrowup","[0.325,0.675,0.15,0.85]","","",""
"sailing-trial","333","1655616","0.0-11.0-282.0","","","","false","","","","","","","","","","1312","","1002.5999999046326","","0","1","arrowleft","0","arrowleft","[0.325,0.675,0.15,0.85]","","",""
"sailing-trial","334","1658787","0.0-11.0-283.0","","","","false","","","","","","","","","","null","","904.5","","3","1","null","null","arrowup","[0.325,0.675,0.15,0.85]","","",""
"sailing-trial","335","1662985","0.0-11.0-284.0","","","","false","","","","","","","","","","753.6000003814697","","908","","0","0","arrowleft","0","arrowleft","[0.15,0.85,0.325,0.675]","","",""
"sailing-trial","336","1666409","0.0-11.0-285.0","","","","false","","","","","","","","","","null","","1205.6999998092651","","1","1","null","null","arrowup","[0.15,0.85,0.325,0.675]","","",""
"sailing-trial","337","1670506","0.0-11.0-286.0","","","","false","","","","","","","","","","1161.7999997138977","","358.59999990463257","","0","0","arrowleft","0","arrowleft","[0.15,0.85,0.325,0.675]","","",""
"sailing-trial","338","1673525","0.0-11.0-287.0","","","","false","","","","","","","","","","null","","1193.7999997138977","","2","0","null","null","arrowup","[0.15,0.85,0.325,0.675]","","",""
"sailing-trial","339","1679195","0.0-11.0-288.0","","","","false","","","","","","","","","","2746","","458","","0","0","arrowleft","0","arrowleft","[0.15,0.85,0.325,0.675]","","",""
"sailing-trial","340","1682320","0.0-11.0-289.0","","","","false","","","","","","","","","","null","","1045.5999999046326","","1","1","null","null","arrowup","[0.15,0.85,0.325,0.675]","","",""
"sailing-trial","341","1686356","0.0-11.0-290.0","","","","false","","","","","","","","","","1040.7000002861023","","162.59999990463257","","1","1","arrowleft","0","arrowright","[0.15,0.85,0.325,0.675]","","",""
"sailing-trial","342","1688704","0.0-11.0-291.0","","","","false","","","","","","","","","","null","","983.4000000953674","","2","0","null","null","arrowup","[0.15,0.85,0.325,0.675]","","",""
"sailing-trial","343","1692461","0.0-11.0-292.0","","","","false","","","","","","","","","","656.3999996185303","","269.3999996185303","","1","1","arrowleft","0","arrowright","[0.15,0.85,0.325,0.675]","","",""
"sailing-trial","344","1695014","0.0-11.0-293.0","","","","false","","","","","","","","","","null","","770.0999999046326","","1","1","null","null","arrowup","[0.15,0.85,0.325,0.675]","","",""
"sailing-trial","345","1697775","0.0-11.0-294.0","","","","false","","","","","","","","","","358","","54.59999990463257","","1","0","arrowleft","0","arrowright","[0.15,0.85,0.325,0.675]","","",""
"sailing-trial","346","1700733","0.0-11.0-295.0","","","","false","","","","","","","","","","null","","1025","","1","1","null","null","arrowup","[0.15,0.85,0.325,0.675]","","",""
"sailing-trial","347","1706421","0.0-11.0-296.0","","","","false","","","","","","","","","","458.5","","2344.2000002861023","","1","1","arrowleft","0","arrowright","[0.15,0.85,0.325,0.675]","","",""
"sailing-trial","348","1709340","0.0-11.0-297.0","","","","false","","","","","","","","","","null","","1039.5999999046326","","1","1","null","null","arrowup","[0.15,0.85,0.325,0.675]","","",""
"sailing-trial","349","1714045","0.0-11.0-298.0","","","","false","","","","","","","","","","1153.4000000953674","","263.59999990463257","","1","1","arrowleft","0","arrowright","[0.15,0.85,0.325,0.675]","","",""
"sailing-trial","350","1717496","0.0-11.0-299.0","","","","false","","","","","","","","","","null","","1055.2000002861023","","1","1","null","null","arrowup","[0.15,0.85,0.325,0.675]","","",""
"sailing-trial","351","1720606","0.0-11.0-300.0","","","","false","","","","","","","","","","454.59999990463257","","306.7000002861023","","1","0","arrowleft","0","arrowright","[0.85,0.15,0.675,0.325]","","",""
"sailing-trial","352","1723351","0.0-11.0-301.0","","","","false","","","","","","","","","","null","","936.0999999046326","","1","1","null","null","arrowup","[0.85,0.15,0.675,0.325]","","",""
"sailing-trial","353","1726175","0.0-11.0-302.0","","","","false","","","","","","","","","","489.80000019073486","","39.5","","1","0","arrowleft","0","arrowright","[0.85,0.15,0.675,0.325]","","",""
"sailing-trial","354","1729355","0.0-11.0-303.0","","","","false","","","","","","","","","","null","","1127.1999998092651","","0","1","null","null","arrowup","[0.85,0.15,0.675,0.325]","","",""
"sailing-trial","355","1733541","0.0-11.0-304.0","","","","false","","","","","","","","","","884.1999998092651","","507.69999980926514","","0","1","arrowleft","0","arrowleft","[0.85,0.15,0.675,0.325]","","",""
"sailing-trial","356","1735855","0.0-11.0-305.0","","","","false","","","","","","","","","","null","","988.6999998092651","","3","0","null","null","arrowup","[0.85,0.15,0.675,0.325]","","",""
"sailing-trial","357","1740513","0.0-11.0-306.0","","","","false","","","","","","","","","","965.2000002861023","","886.0999999046326","","0","1","arrowleft","0","arrowleft","[0.85,0.15,0.675,0.325]","","",""
"sailing-trial","358","1743048","0.0-11.0-307.0","","","","false","","","","","","","","","","null","","805.6999998092651","","0","1","null","null","arrowup","[0.85,0.15,0.675,0.325]","","",""
"sailing-trial","359","1746820","0.0-11.0-308.0","","","","false","","","","","","","","","","503.5","","368.19999980926514","","0","1","arrowleft","0","arrowleft","[0.85,0.15,0.675,0.325]","","",""
"sailing-trial","360","1749035","0.0-11.0-309.0","","","","false","","","","","","","","","","null","","919.1999998092651","","3","0","null","null","arrowup","[0.85,0.15,0.675,0.325]","","",""
"sailing-trial","361","1752722","0.0-11.0-310.0","","","","false","","","","","","","","","","525.6000003814697","","350.5","","0","1","arrowleft","0","arrowleft","[0.85,0.15,0.675,0.325]","","",""
"sailing-trial","362","1755507","0.0-11.0-311.0","","","","false","","","","","","","","","","null","","968.1000003814697","","2","1","null","null","arrowup","[0.85,0.15,0.675,0.325]","","",""
"sailing-trial","363","1759611","0.0-11.0-312.0","","","","false","","","","","","","","","","573.5999999046326","","709.5999999046326","","0","1","arrowleft","0","arrowleft","[0.85,0.15,0.675,0.325]","","",""
"sailing-trial","364","1762596","0.0-11.0-313.0","","","","false","","","","","","","","","","null","","1028.7000002861023","","0","1","null","null","arrowup","[0.85,0.15,0.675,0.325]","","",""
"sailing-trial","365","1767666","0.0-11.0-314.0","","","","false","","","","","","","","","","1176.4000000953674","","40.19999980926514","","0","1","arrowleft","0","arrowleft","[0.85,0.15,0.675,0.325]","","",""
"sailing-trial","366","1771135","0.0-11.0-315.0","","","","false","","","","","","","","","","null","","1244.6999998092651","","3","1","null","null","arrowup","[0.85,0.15,0.675,0.325]","","",""
"sailing-trial","367","1775715","0.0-11.0-316.0","","","","false","","","","","","","","","","1034.7999997138977","","747.7000002861023","","0","0","arrowleft","0","arrowleft","[0.325,0.675,0.15,0.85]","","",""
"sailing-trial","368","1778808","0.0-11.0-317.0","","","","false","","","","","","","","","","null","","1186","","3","1","null","null","arrowup","[0.325,0.675,0.15,0.85]","","",""
"sailing-trial","369","1782064","0.0-11.0-318.0","","","","false","","","","","","","","","","552.8999996185303","","270","","0","0","arrowleft","0","arrowleft","[0.325,0.675,0.15,0.85]","","",""
"sailing-trial","370","1784505","0.0-11.0-319.0","","","","false","","","","","","","","","","null","","1116.2999997138977","","0","0","null","null","arrowup","[0.325,0.675,0.15,0.85]","","",""
"sailing-trial","371","1788732","0.0-11.0-320.0","","","","false","","","","","","","","","","1036.2999997138977","","240.40000009536743","","3","1","arrowright","1","arrowright","[0.325,0.675,0.15,0.85]","","",""
"sailing-trial","372","1791085","0.0-11.0-321.0","","","","false","","","","","","","","","","null","","1038.1999998092651","","3","0","null","null","arrowup","[0.325,0.675,0.15,0.85]","","",""
"sailing-trial","373","1794969","0.0-11.0-322.0","","","","false","","","","","","","","","","504.80000019073486","","523.1999998092651","","3","1","arrowright","1","arrowright","[0.325,0.675,0.15,0.85]","","",""
"sailing-trial","374","1798639","0.0-11.0-323.0","","","","false","","","","","","","","","","null","","1791.5999999046326","","0","1","null","null","arrowup","[0.325,0.675,0.15,0.85]","","",""
"sailing-trial","375","1802825","0.0-11.0-324.0","","","","false","","","","","","","","","","911.9000000953674","","381.30000019073486","","3","1","arrowright","1","arrowright","[0.325,0.675,0.15,0.85]","","",""
"sailing-trial","376","1805844","0.0-11.0-325.0","","","","false","","","","","","","","","","null","","1624.7999997138977","","2","0","null","null","arrowup","[0.325,0.675,0.15,0.85]","","",""
"sailing-trial","377","1809596","0.0-11.0-326.0","","","","false","","","","","","","","","","416.2999997138977","","572.8000001907349","","3","1","arrowright","1","arrowright","[0.325,0.675,0.15,0.85]","","",""
"sailing-trial","378","1811755","0.0-11.0-327.0","","","","false","","","","","","","","","","null","","803.4000000953674","","2","0","null","null","arrowup","[0.325,0.675,0.15,0.85]","","",""
"sailing-trial","379","1815164","0.0-11.0-328.0","","","","false","","","","","","","","","","605.8000001907349","","508.40000009536743","","3","0","arrowright","1","arrowright","[0.325,0.675,0.15,0.85]","","",""
"sailing-trial","380","1817536","0.0-11.0-329.0","","","","false","","","","","","","","","","null","","935.9000000953674","","0","0","null","null","arrowup","[0.325,0.675,0.15,0.85]","","",""
"sailing-trial","381","1821006","0.0-11.0-330.0","","","","false","","","","","","","","","","434.5","","154.59999990463257","","3","1","arrowright","1","arrowright","[0.325,0.675,0.15,0.85]","","",""
"sailing-trial","382","1823840","0.0-11.0-331.0","","","","false","","","","","","","","","","null","","863.9000000953674","","1","1","null","null","arrowup","[0.325,0.675,0.15,0.85]","","",""
"sailing-trial","383","1827343","0.0-11.0-332.0","","","","false","","","","","","","","","","590.5","","19.800000190734863","","3","1","arrowright","1","arrowright","[0.325,0.675,0.15,0.85]","","",""
"sailing-trial","384","1830278","0.0-11.0-333.0","","","","false","","","","","","","","","","null","","1087","","2","1","null","null","arrowup","[0.325,0.675,0.15,0.85]","","",""
"sailing-trial","385","1834264","0.0-11.0-334.0","","","","false","","","","","","","","","","1002.0999999046326","","185.40000009536743","","3","1","arrowright","1","arrowright","[0.15,0.85,0.325,0.675]","","",""
"sailing-trial","386","1836544","0.0-11.0-335.0","","","","false","","","","","","","","","","null","","1035.5999999046326","","0","0","null","null","arrowup","[0.15,0.85,0.325,0.675]","","",""
"sailing-trial","387","1840251","0.0-11.0-336.0","","","","false","","","","","","","","","","386","","431.7000002861023","","3","1","arrowright","1","arrowright","[0.15,0.85,0.325,0.675]","","",""
"sailing-trial","388","1842494","0.0-11.0-337.0","","","","false","","","","","","","","","","null","","898.0999999046326","","3","0","null","null","arrowup","[0.15,0.85,0.325,0.675]","","",""
"sailing-trial","389","1846406","0.0-11.0-338.0","","","","false","","","","","","","","","","476.80000019073486","","673.8000001907349","","3","1","arrowright","1","arrowright","[0.15,0.85,0.325,0.675]","","",""
"sailing-trial","390","1849105","0.0-11.0-339.0","","","","false","","","","","","","","","","null","","1335.0999999046326","","0","0","null","null","arrowup","[0.15,0.85,0.325,0.675]","","",""
"sailing-trial","391","1852714","0.0-11.0-340.0","","","","false","","","","","","","","","","555.5999999046326","","535.0999999046326","","3","0","arrowright","1","arrowright","[0.15,0.85,0.325,0.675]","","",""
"sailing-trial","392","1855397","0.0-11.0-341.0","","","","false","","","","","","","","","","null","","876","","2","1","null","null","arrowup","[0.15,0.85,0.325,0.675]","","",""
"sailing-trial","393","1859549","0.0-11.0-342.0","","","","false","","","","","","","","","","563.4000000953674","","621.1999998092651","","3","1","arrowright","1","arrowright","[0.15,0.85,0.325,0.675]","","",""
"sailing-trial","394","1862167","0.0-11.0-343.0","","","","false","","","","","","","","","","null","","681.5","","3","1","null","null","arrowup","[0.15,0.85,0.325,0.675]","","",""
"sailing-trial","395","1865585","0.0-11.0-344.0","","","","false","","","","","","","","","","595.1999998092651","","400.2000002861023","","3","0","arrowright","1","arrowright","[0.15,0.85,0.325,0.675]","","",""
"sailing-trial","396","1867856","0.0-11.0-345.0","","","","false","","","","","","","","","","null","","1087.6999998092651","","0","0","null","null","arrowup","[0.15,0.85,0.325,0.675]","","",""
"sailing-trial","397","1871357","0.0-11.0-346.0","","","","false","","","","","","","","","","584.7999997138977","","356.2999997138977","","3","0","arrowright","1","arrowright","[0.15,0.85,0.325,0.675]","","",""
"sailing-trial","398","1874159","0.0-11.0-347.0","","","","false","","","","","","","","","","null","","973","","2","1","null","null","arrowup","[0.15,0.85,0.325,0.675]","","",""
"sailing-trial","399","1877276","0.0-11.0-348.0","","","","false","","","","","","","","","","541","","224.59999990463257","","2","0","arrowright","1","arrowleft","[0.15,0.85,0.325,0.675]","","",""
"sailing-trial","400","1879946","0.0-11.0-349.0","","","","false","","","","","","","","","","null","","885.1999998092651","","3","1","null","null","arrowup","[0.15,0.85,0.325,0.675]","","",""
"sailing-trial","401","1883750","0.0-11.0-350.0","","","","false","","","","","","","","","","554.7999997138977","","368.09999990463257","","1","1","arrowleft","0","arrowright","[0.325,0.675,0.15,0.85]","","",""
"sailing-trial","402","1887569","0.0-11.0-351.0","","","","false","","","","","","","","","","null","","1540.1999998092651","","3","1","null","null","arrowup","[0.325,0.675,0.15,0.85]","","",""
"sailing-trial","403","1890975","0.0-11.0-352.0","","","","false","","","","","","","","","","681.5999999046326","","334.30000019073486","","1","0","arrowleft","0","arrowright","[0.325,0.675,0.15,0.85]","","",""
"sailing-trial","404","1894945","0.0-11.0-353.0","","","","false","","","","","","","","","","null","","1137","","0","0","null","null","arrowup","[0.325,0.675,0.15,0.85]","","",""
"sailing-trial","405","1899163","0.0-11.0-354.0","","","","false","","","","","","","","","","1175.2999997138977","","28.700000286102295","","1","1","arrowleft","0","arrowright","[0.325,0.675,0.15,0.85]","","",""
"sailing-trial","406","1901936","0.0-11.0-355.0","","","","false","","","","","","","","","","null","","989","","2","0","null","null","arrowup","[0.325,0.675,0.15,0.85]","","",""
"sailing-trial","407","1905683","0.0-11.0-356.0","","","","false","","","","","","","","","","526.6999998092651","","400.8999996185303","","1","1","arrowleft","0","arrowright","[0.325,0.675,0.15,0.85]","","",""
"sailing-trial","408","1908352","0.0-11.0-357.0","","","","false","","","","","","","","","","null","","897.9000000953674","","1","1","null","null","arrowup","[0.325,0.675,0.15,0.85]","","",""
"sailing-trial","409","1912235","0.0-11.0-358.0","","","","false","","","","","","","","","","560.1999998092651","","374.7000002861023","","1","0","arrowleft","0","arrowright","[0.325,0.675,0.15,0.85]","","",""
"sailing-trial","410","1914616","0.0-11.0-359.0","","","","false","","","","","","","","","","null","","986.0999999046326","","0","0","null","null","arrowup","[0.325,0.675,0.15,0.85]","","",""
"sailing-trial","411","1919146","0.0-11.0-360.0","","","","false","","","","","","","","","","685.4000000953674","","129.30000019073486","","1","0","arrowleft","0","arrowright","[0.325,0.675,0.15,0.85]","","",""
"sailing-trial","412","1921496","0.0-11.0-361.0","","","","false","","","","","","","","","","null","","964.9000000953674","","2","0","null","null","arrowup","[0.325,0.675,0.15,0.85]","","",""
"sailing-trial","413","1924446","0.0-11.0-362.0","","","","false","","","","","","","","","","495.7000002861023","","99.69999980926514","","0","0","arrowleft","0","arrowleft","[0.325,0.675,0.15,0.85]","","",""
"sailing-trial","414","1927283","0.0-11.0-363.0","","","","false","","","","","","","","","","null","","975.2000002861023","","1","1","null","null","arrowup","[0.325,0.675,0.15,0.85]","","",""
"sailing-trial","415","1930598","0.0-11.0-364.0","","","","false","","","","","","","","","","457.90000009536743","","485.90000009536743","","2","0","arrowright","1","arrowleft","[0.325,0.675,0.15,0.85]","","",""
"sailing-trial","416","1935155","0.0-11.0-365.0","","","","false","","","","","","","","","","null","","2793","","0","1","null","null","arrowup","[0.325,0.675,0.15,0.85]","","",""
"sailing-trial","417","1938608","0.0-11.0-366.0","","","","false","","","","","","","","","","556.8000001907349","","51.40000009536743","","3","1","arrowright","1","arrowright","[0.325,0.675,0.15,0.85]","","",""
"sailing-trial","418","1942544","0.0-11.0-367.0","","","","false","","","","","","","","","","null","","2081.9000000953674","","3","1","null","null","arrowup","[0.325,0.675,0.15,0.85]","","",""
"sailing-trial","419","1945979","0.0-11.0-368.0","","","","false","","","","","","","","","","586.5","","35.59999990463257","","3","1","arrowright","1","arrowright","[0.15,0.85,0.325,0.675]","","",""
"sailing-trial","420","1949749","0.0-11.0-369.0","","","","false","","","","","","","","","","null","","1880.1999998092651","","1","1","null","null","arrowup","[0.15,0.85,0.325,0.675]","","",""
"sailing-trial","421","1953318","0.0-11.0-370.0","","","","false","","","","","","","","","","481.40000009536743","","350.69999980926514","","3","1","arrowright","1","arrowright","[0.15,0.85,0.325,0.675]","","",""
"sailing-trial","422","1956420","0.0-11.0-371.0","","","","false","","","","","","","","","","null","","1244.5999999046326","","0","1","null","null","arrowup","[0.15,0.85,0.325,0.675]","","",""
"sailing-trial","423","1959784","0.0-11.0-372.0","","","","false","","","","","","","","","","969.7999997138977","","34.89999961853027","","3","0","arrowright","1","arrowright","[0.15,0.85,0.325,0.675]","","",""
"sailing-trial","424","1962627","0.0-11.0-373.0","","","","false","","","","","","","","","","null","","975.2999997138977","","1","1","null","null","arrowup","[0.15,0.85,0.325,0.675]","","",""
"sailing-trial","425","1965484","0.0-11.0-374.0","","","","false","","","","","","","","","","503.19999980926514","","1.3000001907348633","","3","0","arrowright","1","arrowright","[0.15,0.85,0.325,0.675]","","",""
"sailing-trial","426","1968445","0.0-11.0-375.0","","","","false","","","","","","","","","","null","","1136.0999999046326","","3","1","null","null","arrowup","[0.15,0.85,0.325,0.675]","","",""
"sailing-trial","427","1972284","0.0-11.0-376.0","","","","false","","","","","","","","","","974.6000003814697","","317.5","","2","0","arrowright","1","arrowleft","[0.15,0.85,0.325,0.675]","","",""
"sailing-trial","428","1975025","0.0-11.0-377.0","","","","false","","","","","","","","","","null","","1495.5","","2","0","null","null","arrowup","[0.15,0.85,0.325,0.675]","","",""
"sailing-trial","429","1978854","0.0-11.0-378.0","","","","false","","","","","","","","","","685.3999996185303","","267.30000019073486","","1","1","arrowleft","0","arrowright","[0.15,0.85,0.325,0.675]","","",""
"sailing-trial","430","1982566","0.0-11.0-379.0","","","","false","","","","","","","","","","null","","1935.5","","0","0","null","null","arrowup","[0.15,0.85,0.325,0.675]","","",""
"sailing-trial","431","1987945","0.0-11.0-380.0","","","","false","","","","","","","","","","804.8000001907349","","2202.7999997138977","","1","0","arrowleft","0","arrowright","[0.15,0.85,0.325,0.675]","","",""
"sailing-trial","432","1991135","0.0-11.0-381.0","","","","false","","","","","","","","","","null","","1355","","2","0","null","null","arrowup","[0.15,0.85,0.325,0.675]","","",""
"sailing-trial","433","1995154","0.0-11.0-382.0","","","","false","","","","","","","","","","524.6999998092651","","479.7999997138977","","1","0","arrowleft","0","arrowright","[0.15,0.85,0.325,0.675]","","",""
"sailing-trial","434","1999506","0.0-11.0-383.0","","","","false","","","","","","","","","","null","","2105.4000000953674","","3","1","null","null","arrowup","[0.15,0.85,0.325,0.675]","","",""
"sailing-trial","435","2003075","0.0-11.0-384.0","","","","false","","","","","","","","","","1034","","108.90000009536743","","0","0","arrowleft","0","arrowleft","[0.325,0.675,0.15,0.85]","","",""
"sailing-trial","436","2005725","0.0-11.0-385.0","","","","false","","","","","","","","","","null","","904.6000003814697","","1","1","null","null","arrowup","[0.325,0.675,0.15,0.85]","","",""
"sailing-trial","437","2010086","0.0-11.0-386.0","","","","false","","","","","","","","","","1516.2000002861023","","490.8999996185303","","2","0","arrowright","1","arrowleft","[0.325,0.675,0.15,0.85]","","",""
"sailing-trial","438","2012731","0.0-11.0-387.0","","","","false","","","","","","","","","","null","","884.1000003814697","","2","1","null","null","arrowup","[0.325,0.675,0.15,0.85]","","",""
"sailing-trial","439","2016485","0.0-11.0-388.0","","","","false","","","","","","","","","","609.8000001907349","","356.7000002861023","","3","1","arrowright","1","arrowright","[0.325,0.675,0.15,0.85]","","",""
"sailing-trial","440","2018895","0.0-11.0-389.0","","","","false","","","","","","","","","","null","","1086.5999999046326","","0","0","null","null","arrowup","[0.325,0.675,0.15,0.85]","","",""
"sailing-trial","441","2022764","0.0-11.0-390.0","","","","false","","","","","","","","","","686.5","","792.5999999046326","","3","0","arrowright","1","arrowright","[0.325,0.675,0.15,0.85]","","",""
"sailing-trial","442","2026157","0.0-11.0-391.0","","","","false","","","","","","","","","","null","","1486.1999998092651","","1","1","null","null","arrowup","[0.325,0.675,0.15,0.85]","","",""
"sailing-trial","443","2030186","0.0-11.0-392.0","","","","false","","","","","","","","","","813.5999999046326","","830.5","","1","0","arrowleft","0","arrowright","[0.325,0.675,0.15,0.85]","","",""
"sailing-trial","444","2033145","0.0-11.0-393.0","","","","false","","","","","","","","","","null","","1146.8999996185303","","0","1","null","null","arrowup","[0.325,0.675,0.15,0.85]","","",""
"sailing-trial","445","2036755","0.0-11.0-394.0","","","","false","","","","","","","","","","1005.0999999046326","","278.09999990463257","","0","0","arrowleft","0","arrowleft","[0.325,0.675,0.15,0.85]","","",""
"sailing-trial","446","2040234","0.0-11.0-395.0","","","","false","","","","","","","","","","null","","1645.8000001907349","","3","1","null","null","arrowup","[0.325,0.675,0.15,0.85]","","",""
"sailing-trial","447","2042906","0.0-11.0-396.0","","","","false","","","","","","","","","","276.7999997138977","","87","","2","0","arrowright","1","arrowleft","[0.325,0.675,0.15,0.85]","","",""
"sailing-trial","448","2045106","0.0-11.0-397.0","","","","false","","","","","","","","","","null","","935.5","","2","0","null","null","arrowup","[0.325,0.675,0.15,0.85]","","",""
"sailing-trial","449","2048957","0.0-11.0-398.0","","","","false","","","","","","","","","","325.19999980926514","","488.90000009536743","","3","1","arrowright","1","arrowright","[0.325,0.675,0.15,0.85]","","",""
"sailing-trial","450","2051396","0.0-11.0-399.0","","","","false","","","","","","","","","","null","","1023.4000000953674","","1","0","null","null","arrowup","[0.325,0.675,0.15,0.85]","","",""
"instructions","451","2051706","0.0-12.0","","","","","","","","","","308.40000009536743","","","","","","","","","","","","","","","","[{""page_index"":0,""viewing_time"":308.09999990463257}]"
"survey-debrief","452","2181736","0.0-13.0","","","","","","","","","","130027.5","","","","","","","","","","","","","","{""difficulty"":""4"",""fun"":""4"",""clarity"":""5"",""strategy"":""I would give a shop two chances in a row without counting the fog round. If it gave an x twice under normal conditions, I would move to a different shop."",""feedback"":""It was an interesting game""}","",""
