"trial_type","trial_index","time_elapsed","internal_node_id","value","metadata","success","timeout","failed_images","failed_audio","failed_video","browser_interaction","low_quality","rt","stimulus","response","button_pressed","island_rt","island_response","boat_rt","boat_response","boat","reward","island_key","island","boat_key","reward_probabilities","responses","num_errors","view_history"
"pavlovia","0","3","0.0-0.0","","","","","","","","","","","","","","","","","","","","","","","","","",""
"call-function","1","4","0.0-1.0","","{""task_version"":""sailing_part1_v1"",""task_condition"":""good"",""boats"":[""A"",""C"",""D"",""B""],""boats_demo"":[""H"",""G"",""F"",""E""],""islands"":[""A"",""B""],""subject_id"":""14522"",""age"":""8"",""gender"":""Female""}","","","","","","","","","","","","","","","","","","","","","","","",""
"preload","2","3099","0.0-2.0","","","true","false","[]","[]","[]","[{""event"":""blur"",""trial"":3,""time"":6205},{""event"":""focus"",""trial"":3,""time"":9326},{""event"":""fullscreenenter"",""trial"":3,""time"":9544}]","false","","","","","","","","","","","","","","","","",""
"fullscreen","3","10527","0.0-3.0","","","true","","","","","","","","","","","","","","","","","","","","","","",""
"audio-keyboard-response","4","12910","0.0-4.0-0.0","","","","","","","","","","1810.6666666666667","audio/beep_loop.wav"," ","","","","","","","","","","","","","",""
"audio-test","5","15242","0.0-4.0-1.0","","","","","","","","","","null","audio/turtle.mp3","","3","","","","","","","","","","","","",""
"audio-test","6","17717","0.0-4.0-2.0","","","","","","","","","","null","audio/shark.mp3","","2","","","","","","","","","","","","",""
"sailing-instructions","7","48428","0.0-5.0-0.0-0.0","","","","","","","","","","","","","","null","null","null","null","null","null","","","","","","",""
"sailing-trial","8","52035","0.0-5.0-0.0-1.0-0.0","","","","false","","","","","","","","","","2472.89999999851","","null","","null","null","arrowleft","0","null","null","","",""
"sailing-trial","9","54485","0.0-5.0-0.0-1.0-1.0","","","","false","","","","","","","","","","1318.7000000029802","","null","","null","null","arrowright","1","null","null","","",""
"sailing-trial","10","60559","0.0-5.0-0.0-1.0-2.0","","","","false","","","","","","","","","","4992.400000002235","","null","","null","null","arrowright","1","null","null","","",""
"sailing-instructions","11","105030","0.0-5.0-0.0-2.0","","","","","","","","","","","","","","null","null","null","null","0","null","","","","","","",""
"sailing-trial","12","111088","0.0-5.0-0.0-3.0-0.0","","","","false","","","","","","","","","","null","","2400.5","","2","1","null","null","arrowleft","[1,1,1,1]","","",""
"sailing-trial","13","114872","0.0-5.0-0.0-3.0-1.0","","","","false","","","","","","","","","","null","","1382.699999999255","","3","1","null","null","arrowright","[1,1,1,1]","","",""
"sailing-trial","14","118773","0.0-5.0-0.0-3.0-2.0","","","","false","","","","","","","","","","null","","2035.9000000022352","","3","0","null","null","arrowright","[0,0,0,0]","","",""
"sailing-instructions","15","126083","0.0-5.0-0.0-4.0","","","","","","","","","","","","","","null","null","null","null","null","null","","","","","","",""
"sailing-comprehension","16","156166","0.0-5.0-0.0-5.0","","","","","","","","","","26178","","","","","","","","","","","","","","[""true"",""true"",""false"",""true""]","0",""
"sailing-instructions","17","218974","0.0-6.0-0.0-0.0","","","","","","","","","","","","","","null","null","null","null","null","null","","","","","","",""
"sailing-comprehension","18","250365","0.0-6.0-0.0-1.0","","","","","","","","","","26036.199999999255","","","","","","","","","","","","","","[""true"",""false"",""true""]","0",""
"sailing-instructions","19","264171","0.0-7.0-0.0-0.0","","","","","","","","","","","","","","null","null","null","null","null","null","","","","","","",""
"sailing-trial","20","270710","0.0-7.0-0.0-1.0-0.0","","","","false","","","","","","","","","","null","","3527.800000000745","","0","0","null","null","arrowup","[0.2,0.8,0.2,0.8]","","",""
"sailing-trial","21","279675","0.0-7.0-0.0-1.0-1.0","","","","false","","","","","","","","","","null","","5594.199999999255","","1","1","null","null","arrowup","[0.2,0.8,0.2,0.8]","","",""
"sailing-trial","22","285839","0.0-7.0-0.0-1.0-2.0","","","","false","","","","","","","","","","null","","4201.29999999702","","2","0","null","null","arrowup","[0.2,0.8,0.2,0.8]","","",""
"sailing-trial","23","290425","0.0-7.0-0.0-1.0-3.0","","","","false","","","","","","","","","","null","","2666.60000000149","","3","1","null","null","arrowup","[0.2,0.8,0.2,0.8]","","",""
"sailing-comprehension","24","310114","0.0-7.0-0.0-2.0","","","","","","","","","","8505","","","","","","","","","","","","","","[""true""]","1",""
"sailing-instructions","25","324689","0.0-7.0-0.1-0.1","","","","","","","","","","","","","","null","null","null","null","null","null","","","","","","",""
"sailing-trial","26","327280","0.0-7.0-0.1-1.1-0.1","","","","false","","","","","","","","","","null","","1107.3999999985099","","0","0","null","null","arrowup","[0.2,0.8,0.2,0.8]","","",""
"sailing-trial","27","329163","0.0-7.0-0.1-1.1-1.1","","","","false","","","","","","","","","","null","","344.30000000074506","","1","1","null","null","arrowup","[0.2,0.8,0.2,0.8]","","",""
"sailing-trial","28","331780","0.0-7.0-0.1-1.1-2.1","","","","false","","","","","","","","","","null","","193.59999999776483","","2","0","null","null","arrowup","[0.2,0.8,0.2,0.8]","","",""
"sailing-trial","29","333864","0.0-7.0-0.1-1.1-3.1","","","","false","","","","","","","","","","null","","234.69999999925494","","3","1","null","null","arrowup","[0.2,0.8,0.2,0.8]","","",""
"sailing-comprehension","30","344270","0.0-7.0-0.1-2.1","","","","","","","","","","3701.199999999255","","","","","","","","","","","","","","[""true""]","1",""
"sailing-instructions","31","354962","0.0-8.0-0.0-0.0","","","","","","","","","","","","","","null","null","null","null","null","null","","","","","","",""
"sailing-comprehension","32","364508","0.0-8.0-0.0-1.0","","","","","","","","","","7211.89999999851","","","","","","","","","","","","","","[""true""]","0",""
"sailing-instructions","33","412112","0.0-9.0-0.0-0.0","","","","","","","","","","","","","","null","null","null","null","null","null","","","","","","",""
"sailing-trial","34","416889","0.0-9.0-0.0-1.0-0.0","","","","false","","","","","","","","","","1265.300000000745","","144.70000000298023","","1","1","arrowleft","0","arrowright","[0.2,0.8,0.2,0.8]","","",""
"sailing-trial","35","421237","0.0-9.0-0.0-1.0-1.0","","","","false","","","","","","","","","","820.5","","425.5","","3","1","arrowright","1","arrowright","[0.2,0.8,0.2,0.8]","","",""
"sailing-trial","36","425403","0.0-9.0-0.0-1.0-2.0","","","","false","","","","","","","","","","null","","2182.89999999851","","0","0","null","null","arrowup","[0.2,0.8,0.2,0.8]","","",""
"sailing-trial","37","430355","0.0-9.0-0.0-1.0-3.0","","","","false","","","","","","","","","","1733.199999999255","","671","","1","1","arrowleft","0","arrowright","[0.2,0.8,0.2,0.8]","","",""
"sailing-trial","38","433572","0.0-9.0-0.0-1.0-4.0","","","","false","","","","","","","","","","null","","1466.0999999977648","","3","1","null","null","arrowup","[0.2,0.8,0.2,0.8]","","",""
"sailing-trial","39","437586","0.0-9.0-0.0-1.0-5.0","","","","false","","","","","","","","","","1198.3999999985099","","545","","2","0","arrowright","1","arrowleft","[0.2,0.8,0.2,0.8]","","",""
"sailing-instructions","40","466594","0.0-10.0","","","","","","","","","","","","","","null","null","null","null","null","null","","","","","","",""
"sailing-trial","41","473103","0.0-11.0-0.0","","","","false","","","","","","","","","","2330","","1784.2000000029802","","2","0","arrowright","1","arrowleft","[0.675,0.325,0.15,0.85]","","",""
"sailing-trial","42","476321","0.0-11.0-1.0","","","","false","","","","","","","","","","null","","1439.3999999985099","","0","1","null","null","arrowup","[0.675,0.325,0.15,0.85]","","",""
"sailing-trial","43","479953","0.0-11.0-2.0","","","","false","","","","","","","","","","664.1000000014901","","255.09999999776483","","1","1","arrowleft","0","arrowright","[0.675,0.325,0.15,0.85]","","",""
"sailing-trial","44","482119","0.0-11.0-3.0","","","","false","","","","","","","","","","null","","262.30000000074506","","0","0","null","null","arrowup","[0.675,0.325,0.15,0.85]","","",""
"sailing-trial","45","485018","0.0-11.0-4.0","","","","false","","","","","","","","","","583.6000000014901","","21","","1","0","arrowleft","0","arrowright","[0.675,0.325,0.15,0.85]","","",""
"sailing-trial","46","487269","0.0-11.0-5.0","","","","false","","","","","","","","","","null","","585.6000000014901","","1","1","null","null","arrowup","[0.675,0.325,0.15,0.85]","","",""
"sailing-trial","47","489586","0.0-11.0-6.0","","","","false","","","","","","","","","","236.60000000149012","","47.20000000298023","","0","0","arrowleft","0","arrowleft","[0.675,0.325,0.15,0.85]","","",""
"sailing-trial","48","491970","0.0-11.0-7.0","","","","false","","","","","","","","","","null","","15","","3","1","null","null","arrowup","[0.675,0.325,0.15,0.85]","","",""
"sailing-trial","49","495718","0.0-11.0-8.0","","","","false","","","","","","","","","","974.1999999992549","","63.19999999925494","","0","1","arrowleft","0","arrowleft","[0.675,0.325,0.15,0.85]","","",""
"sailing-trial","50","496975","0.0-11.0-9.0","","","","false","","","","","","","","","","null","","165.70000000298023","","2","0","null","null","arrowup","[0.675,0.325,0.15,0.85]","","",""
"sailing-trial","51","500802","0.0-11.0-10.0","","","","false","","","","","","","","","","908.5","","62.70000000298023","","3","1","arrowright","1","arrowright","[0.675,0.325,0.15,0.85]","","",""
"sailing-trial","52","502036","0.0-11.0-11.0","","","","false","","","","","","","","","","null","","65.29999999701977","","2","0","null","null","arrowup","[0.675,0.325,0.15,0.85]","","",""
"sailing-trial","53","505152","0.0-11.0-12.0","","","","false","","","","","","","","","","702.0999999977648","","183.69999999925494","","0","0","arrowleft","0","arrowleft","[0.675,0.325,0.15,0.85]","","",""
"sailing-trial","54","506934","0.0-11.0-13.0","","","","false","","","","","","","","","","null","","394.80000000074506","","2","0","null","null","arrowup","[0.675,0.325,0.15,0.85]","","",""
"sailing-trial","55","510203","0.0-11.0-14.0","","","","false","","","","","","","","","","351.6000000014901","","348.3999999985099","","3","1","arrowright","1","arrowright","[0.675,0.325,0.15,0.85]","","",""
"sailing-trial","56","514076","0.0-11.0-15.0","","","","false","","","","","","","","","","null","","1654","","0","0","null","null","arrowup","[0.675,0.325,0.15,0.85]","","",""
"sailing-trial","57","517018","0.0-11.0-16.0","","","","false","","","","","","","","","","433.9000000022352","","113.69999999925494","","2","0","arrowright","1","arrowleft","[0.675,0.325,0.15,0.85]","","",""
"sailing-trial","58","521818","0.0-11.0-17.0","","","","false","","","","","","","","","","null","","2996.900000002235","","3","1","null","null","arrowup","[0.675,0.325,0.15,0.85]","","",""
"sailing-trial","59","524997","0.0-11.0-18.0","","","","false","","","","","","","","","","178","","355.69999999925494","","2","1","arrowright","1","arrowleft","[0.85,0.15,0.325,0.675]","","",""
"sailing-trial","60","527442","0.0-11.0-19.0","","","","false","","","","","","","","","","null","","688.6999999992549","","0","1","null","null","arrowup","[0.85,0.15,0.325,0.675]","","",""
"sailing-trial","61","531176","0.0-11.0-20.0","","","","false","","","","","","","","","","208.10000000149012","","200.69999999925494","","1","0","arrowleft","0","arrowright","[0.85,0.15,0.325,0.675]","","",""
"sailing-trial","62","532969","0.0-11.0-21.0","","","","false","","","","","","","","","","null","","133.69999999925494","","3","1","null","null","arrowup","[0.85,0.15,0.325,0.675]","","",""
"sailing-trial","63","535475","0.0-11.0-22.0","","","","false","","","","","","","","","","185.5","","274.3999999985099","","1","0","arrowleft","0","arrowright","[0.85,0.15,0.325,0.675]","","",""
"sailing-trial","64","537475","0.0-11.0-23.0","","","","false","","","","","","","","","","null","","350.80000000074506","","3","1","null","null","arrowup","[0.85,0.15,0.325,0.675]","","",""
"sailing-trial","65","540675","0.0-11.0-24.0","","","","false","","","","","","","","","","38.19999999925494","","637","","0","1","arrowleft","0","arrowleft","[0.85,0.15,0.325,0.675]","","",""
"sailing-trial","66","543885","0.0-11.0-25.0","","","","false","","","","","","","","","","null","","1623","","3","1","null","null","arrowup","[0.85,0.15,0.325,0.675]","","",""
"sailing-trial","67","547601","0.0-11.0-26.0","","","","false","","","","","","","","","","313.0999999977648","","694.8000000007451","","3","1","arrowright","1","arrowright","[0.85,0.15,0.325,0.675]","","",""
"sailing-trial","68","550135","0.0-11.0-27.0","","","","false","","","","","","","","","","null","","762.6000000014901","","3","1","null","null","arrowup","[0.85,0.15,0.325,0.675]","","",""
"sailing-trial","69","553817","0.0-11.0-28.0","","","","false","","","","","","","","","","1235.300000000745","","360.3999999985099","","1","0","arrowleft","0","arrowright","[0.85,0.15,0.325,0.675]","","",""
"sailing-trial","70","556435","0.0-11.0-29.0","","","","false","","","","","","","","","","null","","750.8000000007451","","0","1","null","null","arrowup","[0.85,0.15,0.325,0.675]","","",""
"sailing-trial","71","559501","0.0-11.0-30.0","","","","false","","","","","","","","","","82.60000000149012","","150.5","","0","1","arrowleft","0","arrowleft","[0.85,0.15,0.325,0.675]","","",""
"sailing-trial","72","561637","0.0-11.0-31.0","","","","false","","","","","","","","","","null","","302.8999999985099","","2","1","null","null","arrowup","[0.85,0.15,0.325,0.675]","","",""
"sailing-trial","73","566735","0.0-11.0-32.0","","","","false","","","","","","","","","","859.6999999992549","","315.80000000074506","","0","1","arrowleft","0","arrowleft","[0.85,0.15,0.325,0.675]","","",""
"sailing-trial","74","568705","0.0-11.0-33.0","","","","false","","","","","","","","","","null","","335","","1","0","null","null","arrowup","[0.85,0.15,0.325,0.675]","","",""
"sailing-trial","75","571344","0.0-11.0-34.0","","","","false","","","","","","","","","","393.5","","199.59999999776483","","0","0","arrowleft","0","arrowleft","[0.675,0.325,0.15,0.85]","","",""
"sailing-trial","76","573869","0.0-11.0-35.0","","","","false","","","","","","","","","","null","","683.5","","0","1","null","null","arrowup","[0.675,0.325,0.15,0.85]","","",""
"sailing-trial","77","576757","0.0-11.0-36.0","","","","false","","","","","","","","","","90.20000000298023","","486.69999999925494","","2","0","arrowright","1","arrowleft","[0.675,0.325,0.15,0.85]","","",""
"sailing-trial","78","579523","0.0-11.0-37.0","","","","false","","","","","","","","","","null","","1053.699999999255","","3","1","null","null","arrowup","[0.675,0.325,0.15,0.85]","","",""
"sailing-trial","79","582343","0.0-11.0-38.0","","","","false","","","","","","","","","","503.80000000074506","","279.8999999985099","","1","0","arrowleft","0","arrowright","[0.675,0.325,0.15,0.85]","","",""
"sailing-trial","80","585300","0.0-11.0-39.0","","","","false","","","","","","","","","","null","","1031.300000000745","","1","1","null","null","arrowup","[0.675,0.325,0.15,0.85]","","",""
"sailing-trial","81","588128","0.0-11.0-40.0","","","","false","","","","","","","","","","520.5999999977648","","148.5","","3","0","arrowright","1","arrowright","[0.675,0.325,0.15,0.85]","","",""
"sailing-trial","82","590891","0.0-11.0-41.0","","","","false","","","","","","","","","","null","","1164.4000000022352","","3","1","null","null","arrowup","[0.675,0.325,0.15,0.85]","","",""
"sailing-trial","83","595216","0.0-11.0-42.0","","","","false","","","","","","","","","","414.5","","1252.3999999985099","","0","1","arrowleft","0","arrowleft","[0.675,0.325,0.15,0.85]","","",""
"sailing-trial","84","597950","0.0-11.0-43.0","","","","false","","","","","","","","","","null","","1039.1000000014901","","1","1","null","null","arrowup","[0.675,0.325,0.15,0.85]","","",""
"sailing-trial","85","601640","0.0-11.0-44.0","","","","false","","","","","","","","","","664.1999999992549","","269.19999999925494","","3","1","arrowright","1","arrowright","[0.675,0.325,0.15,0.85]","","",""
"sailing-trial","86","604274","0.0-11.0-45.0","","","","false","","","","","","","","","","null","","1099.7999999970198","","3","1","null","null","arrowup","[0.675,0.325,0.15,0.85]","","",""
"sailing-trial","87","607699","0.0-11.0-46.0","","","","false","","","","","","","","","","703.9000000022352","","68.10000000149012","","2","0","arrowright","1","arrowleft","[0.675,0.325,0.15,0.85]","","",""
"sailing-trial","88","609155","0.0-11.0-47.0","","","","false","","","","","","","","","","null","","308.1000000014901","","0","0","null","null","arrowup","[0.675,0.325,0.15,0.85]","","",""
"sailing-trial","89","613240","0.0-11.0-48.0","","","","false","","","","","","","","","","1591.800000000745","","141.5","","1","0","arrowleft","0","arrowright","[0.675,0.325,0.15,0.85]","","",""
"sailing-trial","90","615917","0.0-11.0-49.0","","","","false","","","","","","","","","","null","","922.4000000022352","","0","1","null","null","arrowup","[0.675,0.325,0.15,0.85]","","",""
"sailing-trial","91","619516","0.0-11.0-50.0","","","","false","","","","","","","","","","834.3000000007451","","211.89999999850988","","0","1","arrowleft","0","arrowleft","[0.85,0.15,0.325,0.675]","","",""
"sailing-trial","92","621298","0.0-11.0-51.0","","","","false","","","","","","","","","","null","","432.5999999977648","","2","0","null","null","arrowup","[0.85,0.15,0.325,0.675]","","",""
"sailing-trial","93","625300","0.0-11.0-52.0","","","","false","","","","","","","","","","939.6999999992549","","7.600000001490116","","1","1","arrowleft","0","arrowright","[0.85,0.15,0.325,0.675]","","",""
"sailing-trial","94","626999","0.0-11.0-53.0","","","","false","","","","","","","","","","null","","509.1000000014901","","3","0","null","null","arrowup","[0.85,0.15,0.325,0.675]","","",""
"sailing-trial","95","630971","0.0-11.0-54.0","","","","false","","","","","","","","","","512.5999999977648","","184.69999999925494","","0","1","arrowleft","0","arrowleft","[0.85,0.15,0.325,0.675]","","",""
"sailing-trial","96","633945","0.0-11.0-55.0","","","","false","","","","","","","","","","null","","296.80000000074506","","1","0","null","null","arrowup","[0.85,0.15,0.325,0.675]","","",""
"sailing-trial","97","636798","0.0-11.0-56.0","","","","false","","","","","","","","","","201","","136.90000000223517","","2","0","arrowright","1","arrowleft","[0.85,0.15,0.325,0.675]","","",""
"sailing-trial","98","638046","0.0-11.0-57.0","","","","false","","","","","","","","","","null","","99.5","","3","0","null","null","arrowup","[0.85,0.15,0.325,0.675]","","",""
"sailing-trial","99","641133","0.0-11.0-58.0","","","","false","","","","","","","","","","278.80000000074506","","5.199999999254942","","0","1","arrowleft","0","arrowleft","[0.85,0.15,0.325,0.675]","","",""
"sailing-trial","100","642456","0.0-11.0-59.0","","","","false","","","","","","","","","","null","","154.39999999850988","","2","0","null","null","arrowup","[0.85,0.15,0.325,0.675]","","",""
"sailing-trial","101","644744","0.0-11.0-60.0","","","","false","","","","","","","","","","38","","78.39999999850988","","1","0","arrowleft","0","arrowright","[0.85,0.15,0.325,0.675]","","",""
"sailing-trial","102","646716","0.0-11.0-61.0","","","","false","","","","","","","","","","null","","307.6000000014901","","0","1","null","null","arrowup","[0.85,0.15,0.325,0.675]","","",""
"sailing-trial","103","649610","0.0-11.0-62.0","","","","false","","","","","","","","","","258.80000000074506","","330.80000000074506","","1","0","arrowleft","0","arrowright","[0.85,0.15,0.325,0.675]","","",""
"sailing-trial","104","653050","0.0-11.0-63.0","","","","false","","","","","","","","","","null","","2216.199999999255","","0","0","null","null","arrowup","[0.85,0.15,0.325,0.675]","","",""
"sailing-trial","105","655731","0.0-11.0-64.0","","","","false","","","","","","","","","","159.69999999925494","","288.3999999985099","","0","0","arrowleft","0","arrowleft","[0.85,0.15,0.325,0.675]","","",""
"sailing-trial","106","658763","0.0-11.0-65.0","","","","false","","","","","","","","","","null","","1635.3999999985099","","2","0","null","null","arrowup","[0.85,0.15,0.325,0.675]","","",""
"sailing-trial","107","662534","0.0-11.0-66.0","","","","false","","","","","","","","","","1610.800000000745","","62.899999998509884","","1","0","arrowleft","0","arrowright","[0.85,0.15,0.325,0.675]","","",""
"sailing-trial","108","664312","0.0-11.0-67.0","","","","false","","","","","","","","","","null","","119.80000000074506","","0","1","null","null","arrowup","[0.85,0.15,0.325,0.675]","","",""
"sailing-trial","109","667078","0.0-11.0-68.0","","","","false","","","","","","","","","","164.19999999925494","","213.59999999776483","","1","0","arrowleft","0","arrowright","[0.85,0.15,0.325,0.675]","","",""
"sailing-trial","110","668111","0.0-11.0-69.0","","","","false","","","","","","","","","","null","","0","","2","0","null","null","arrowup","[0.85,0.15,0.325,0.675]","","",""
"sailing-trial","111","670994","0.0-11.0-70.0","","","","false","","","","","","","","","","363.80000000074506","","183.19999999925494","","0","0","arrowleft","0","arrowleft","[0.325,0.675,0.85,0.15]","","",""
"sailing-trial","112","672485","0.0-11.0-71.0","","","","false","","","","","","","","","","null","","215.30000000074506","","0","0","null","null","arrowup","[0.325,0.675,0.85,0.15]","","",""
"sailing-trial","113","675719","0.0-11.0-72.0","","","","false","","","","","","","","","","426.79999999701977","","424.19999999925494","","0","0","arrowleft","0","arrowleft","[0.325,0.675,0.85,0.15]","","",""
"sailing-trial","114","677088","0.0-11.0-73.0","","","","false","","","","","","","","","","null","","36.5","","2","0","null","null","arrowup","[0.325,0.675,0.85,0.15]","","",""
"sailing-trial","115","680401","0.0-11.0-74.0","","","","false","","","","","","","","","","364.8999999985099","","197.60000000149012","","0","1","arrowleft","0","arrowleft","[0.325,0.675,0.85,0.15]","","",""
"sailing-trial","116","682865","0.0-11.0-75.0","","","","false","","","","","","","","","","null","","47.900000002235174","","1","1","null","null","arrowup","[0.325,0.675,0.85,0.15]","","",""
"sailing-trial","117","685881","0.0-11.0-76.0","","","","false","","","","","","","","","","60.599999997764826","","623.5","","3","0","arrowright","1","arrowright","[0.325,0.675,0.85,0.15]","","",""
"sailing-trial","118","687406","0.0-11.0-77.0","","","","false","","","","","","","","","","null","","394","","0","0","null","null","arrowup","[0.325,0.675,0.85,0.15]","","",""
"sailing-trial","119","690328","0.0-11.0-78.0","","","","false","","","","","","","","","","275.70000000298023","","68.90000000223517","","2","1","arrowright","1","arrowleft","[0.325,0.675,0.85,0.15]","","",""
"sailing-trial","120","691623","0.0-11.0-79.0","","","","false","","","","","","","","","","null","","195.69999999925494","","2","0","null","null","arrowup","[0.325,0.675,0.85,0.15]","","",""
"sailing-trial","121","693978","0.0-11.0-80.0","","","","false","","","","","","","","","","98.80000000074506","","171.19999999925494","","0","0","arrowleft","0","arrowleft","[0.325,0.675,0.85,0.15]","","",""
"sailing-trial","122","697078","0.0-11.0-81.0","","","","false","","","","","","","","","","null","","1445.2999999970198","","1","1","null","null","arrowup","[0.325,0.675,0.85,0.15]","","",""
"sailing-trial","123","699794","0.0-11.0-82.0","","","","false","","","","","","","","","","204.5","","434.19999999925494","","0","0","arrowleft","0","arrowleft","[0.325,0.675,0.85,0.15]","","",""
"sailing-trial","124","702302","0.0-11.0-83.0","","","","false","","","","","","","","","","null","","938.6999999992549","","2","1","null","null","arrowup","[0.325,0.675,0.85,0.15]","","",""
"sailing-trial","125","704818","0.0-11.0-84.0","","","","false","","","","","","","","","","23","","81","","3","0","arrowright","1","arrowright","[0.325,0.675,0.85,0.15]","","",""
"sailing-trial","126","707015","0.0-11.0-85.0","","","","false","","","","","","","","","","null","","394.0999999977648","","1","1","null","null","arrowup","[0.325,0.675,0.85,0.15]","","",""
"sailing-trial","127","710655","0.0-11.0-86.0","","","","false","","","","","","","","","","838.5","","641.3000000007451","","1","0","arrowleft","0","arrowright","[0.15,0.85,0.675,0.325]","","",""
"sailing-trial","128","713095","0.0-11.0-87.0","","","","false","","","","","","","","","","null","","538.3000000007451","","2","1","null","null","arrowup","[0.15,0.85,0.675,0.325]","","",""
"sailing-trial","129","715395","0.0-11.0-88.0","","","","false","","","","","","","","","","117.19999999925494","","132.10000000149012","","3","0","arrowright","1","arrowright","[0.15,0.85,0.675,0.325]","","",""
"sailing-trial","130","717077","0.0-11.0-89.0","","","","false","","","","","","","","","","null","","655.5","","3","0","null","null","arrowup","[0.15,0.85,0.675,0.325]","","",""
"sailing-trial","131","719533","0.0-11.0-90.0","","","","false","","","","","","","","","","73.60000000149012","","0.6000000014901161","","0","0","arrowleft","0","arrowleft","[0.15,0.85,0.675,0.325]","","",""
"sailing-trial","132","721318","0.0-11.0-91.0","","","","false","","","","","","","","","","null","","625.8000000007451","","0","0","null","null","arrowup","[0.15,0.85,0.675,0.325]","","",""
"sailing-trial","133","724417","0.0-11.0-92.0","","","","false","","","","","","","","","","556.6999999992549","","393.79999999701977","","0","0","arrowleft","0","arrowleft","[0.15,0.85,0.675,0.325]","","",""
"sailing-trial","134","725669","0.0-11.0-93.0","","","","false","","","","","","","","","","null","","96.10000000149012","","0","0","null","null","arrowup","[0.15,0.85,0.675,0.325]","","",""
"sailing-trial","135","729185","0.0-11.0-94.0","","","","false","","","","","","","","","","557.6999999992549","","667.3000000007451","","0","0","arrowleft","0","arrowleft","[0.15,0.85,0.675,0.325]","","",""
"sailing-trial","136","731616","0.0-11.0-95.0","","","","false","","","","","","","","","","null","","748.1000000014901","","1","1","null","null","arrowup","[0.15,0.85,0.675,0.325]","","",""
"sailing-trial","137","735193","0.0-11.0-96.0","","","","false","","","","","","","","","","361.6000000014901","","299.5","","1","1","arrowleft","0","arrowright","[0.15,0.85,0.675,0.325]","","",""
"sailing-trial","138","736957","0.0-11.0-97.0","","","","false","","","","","","","","","","null","","679.3000000007451","","3","0","null","null","arrowup","[0.15,0.85,0.675,0.325]","","",""
"sailing-trial","139","740183","0.0-11.0-98.0","","","","false","","","","","","","","","","194.89999999850988","","330.5999999977648","","1","1","arrowleft","0","arrowright","[0.15,0.85,0.675,0.325]","","",""
"sailing-trial","140","741984","0.0-11.0-99.0","","","","false","","","","","","","","","","null","","629.3000000007451","","0","0","null","null","arrowup","[0.15,0.85,0.675,0.325]","","",""
"sailing-trial","141","744241","0.0-11.0-100.0","","","","false","","","","","","","","","","152.5","","60.69999999925494","","3","0","arrowright","1","arrowright","[0.15,0.85,0.675,0.325]","","",""
"sailing-trial","142","745607","0.0-11.0-101.0","","","","false","","","","","","","","","","null","","250.60000000149012","","2","0","null","null","arrowup","[0.15,0.85,0.675,0.325]","","",""
"sailing-trial","143","748341","0.0-11.0-102.0","","","","false","","","","","","","","","","265.70000000298023","","258.1000000014901","","0","0","arrowleft","0","arrowleft","[0.15,0.85,0.675,0.325]","","",""
"sailing-trial","144","750008","0.0-11.0-103.0","","","","false","","","","","","","","","","null","","455.9000000022352","","2","0","null","null","arrowup","[0.15,0.85,0.675,0.325]","","",""
"sailing-trial","145","753042","0.0-11.0-104.0","","","","false","","","","","","","","","","42.80000000074506","","362.70000000298023","","0","1","arrowleft","0","arrowleft","[0.15,0.85,0.675,0.325]","","",""
"sailing-trial","146","758175","0.0-11.0-105.0","","","","false","","","","","","","","","","null","","3178.900000002235","","2","0","null","null","arrowup","[0.15,0.85,0.675,0.325]","","",""
"sailing-trial","147","761708","0.0-11.0-106.0","","","","false","","","","","","","","","","1044.5","","440.9000000022352","","3","0","arrowright","1","arrowright","[0.325,0.675,0.85,0.15]","","",""
"sailing-trial","148","764940","0.0-11.0-107.0","","","","false","","","","","","","","","","null","","1066.4000000022352","","3","0","null","null","arrowup","[0.325,0.675,0.85,0.15]","","",""
"sailing-trial","149","768389","0.0-11.0-108.0","","","","false","","","","","","","","","","946.4000000022352","","492.5","","1","0","arrowleft","0","arrowright","[0.325,0.675,0.85,0.15]","","",""
"sailing-trial","150","771445","0.0-11.0-109.0","","","","false","","","","","","","","","","null","","1194.699999999255","","1","1","null","null","arrowup","[0.325,0.675,0.85,0.15]","","",""
"sailing-trial","151","776442","0.0-11.0-110.0","","","","false","","","","","","","","","","852.9000000022352","","844","","2","1","arrowright","1","arrowleft","[0.325,0.675,0.85,0.15]","","",""
"sailing-trial","152","778928","0.0-11.0-111.0","","","","false","","","","","","","","","","null","","790.5","","2","1","null","null","arrowup","[0.325,0.675,0.85,0.15]","","",""
"sailing-trial","153","781342","0.0-11.0-112.0","","","","false","","","","","","","","","","238.10000000149012","","60.600000001490116","","1","0","arrowleft","0","arrowright","[0.325,0.675,0.85,0.15]","","",""
"sailing-trial","154","785845","0.0-11.0-113.0","","","","false","","","","","","","","","","null","","2949.300000000745","","2","1","null","null","arrowup","[0.325,0.675,0.85,0.15]","","",""
"sailing-trial","155","789778","0.0-11.0-114.0","","","","false","","","","","","","","","","1369.8999999985099","","293.79999999701977","","0","0","arrowleft","0","arrowleft","[0.325,0.675,0.85,0.15]","","",""
"sailing-trial","156","792120","0.0-11.0-115.0","","","","false","","","","","","","","","","null","","474","","2","1","null","null","arrowup","[0.325,0.675,0.85,0.15]","","",""
"sailing-trial","157","795436","0.0-11.0-116.0","","","","false","","","","","","","","","","648.6999999992549","","103.69999999925494","","1","1","arrowleft","0","arrowright","[0.325,0.675,0.85,0.15]","","",""
"sailing-trial","158","797673","0.0-11.0-117.0","","","","false","","","","","","","","","","null","","934.6000000014901","","0","0","null","null","arrowup","[0.325,0.675,0.85,0.15]","","",""
"sailing-trial","159","802165","0.0-11.0-118.0","","","","false","","","","","","","","","","1621.800000000745","","274.70000000298023","","3","1","arrowright","1","arrowright","[0.325,0.675,0.85,0.15]","","",""
"sailing-trial","160","803755","0.0-11.0-119.0","","","","false","","","","","","","","","","null","","363.9000000022352","","1","0","null","null","arrowup","[0.325,0.675,0.85,0.15]","","",""
"sailing-trial","161","810878","0.0-11.0-120.0","","","","false","","","","","","","","","","1082.699999999255","","3022.5","","0","1","arrowleft","0","arrowleft","[0.325,0.675,0.85,0.15]","","",""
"sailing-trial","162","814412","0.0-11.0-121.0","","","","false","","","","","","","","","","null","","1742.5","","2","1","null","null","arrowup","[0.325,0.675,0.85,0.15]","","",""
"sailing-trial","163","817293","0.0-11.0-122.0","","","","false","","","","","","","","","","414.20000000298023","","131.69999999925494","","0","0","arrowleft","0","arrowleft","[0.325,0.675,0.85,0.15]","","",""
"sailing-trial","164","818429","0.0-11.0-123.0","","","","false","","","","","","","","","","null","","81.10000000149012","","1","0","null","null","arrowup","[0.325,0.675,0.85,0.15]","","",""
"sailing-trial","165","821918","0.0-11.0-124.0","","","","false","","","","","","","","","","375.30000000074506","","187.80000000074506","","0","1","arrowleft","0","arrowleft","[0.85,0.15,0.325,0.675]","","",""
"sailing-trial","166","823232","0.0-11.0-125.0","","","","false","","","","","","","","","","null","","74.5","","2","0","null","null","arrowup","[0.85,0.15,0.325,0.675]","","",""
"sailing-trial","167","826211","0.0-11.0-126.0","","","","false","","","","","","","","","","38.79999999701977","","225.10000000149012","","0","1","arrowleft","0","arrowleft","[0.85,0.15,0.325,0.675]","","",""
"sailing-trial","168","828177","0.0-11.0-127.0","","","","false","","","","","","","","","","null","","218.39999999850988","","0","1","null","null","arrowup","[0.85,0.15,0.325,0.675]","","",""
"sailing-trial","169","830919","0.0-11.0-128.0","","","","false","","","","","","","","","","278.8999999985099","","309.79999999701977","","0","0","arrowleft","0","arrowleft","[0.85,0.15,0.325,0.675]","","",""
"sailing-trial","170","832177","0.0-11.0-129.0","","","","false","","","","","","","","","","null","","206.30000000074506","","1","0","null","null","arrowup","[0.85,0.15,0.325,0.675]","","",""
"sailing-trial","171","834460","0.0-11.0-130.0","","","","false","","","","","","","","","","94.89999999850988","","72.10000000149012","","2","0","arrowright","1","arrowleft","[0.85,0.15,0.325,0.675]","","",""
"sailing-trial","172","838277","0.0-11.0-131.0","","","","false","","","","","","","","","","null","","2292.699999999255","","0","1","null","null","arrowup","[0.85,0.15,0.325,0.675]","","",""
"sailing-trial","173","841345","0.0-11.0-132.0","","","","false","","","","","","","","","","212.5","","20.899999998509884","","0","1","arrowleft","0","arrowleft","[0.85,0.15,0.325,0.675]","","",""
"sailing-trial","174","844730","0.0-11.0-133.0","","","","false","","","","","","","","","","null","","1560.6000000014901","","0","1","null","null","arrowup","[0.85,0.15,0.325,0.675]","","",""
"sailing-trial","175","847031","0.0-11.0-134.0","","","","false","","","","","","","","","","25.699999999254942","","131.90000000223517","","3","0","arrowright","1","arrowright","[0.85,0.15,0.325,0.675]","","",""
"sailing-trial","176","849510","0.0-11.0-135.0","","","","false","","","","","","","","","","null","","1131.699999999255","","3","0","null","null","arrowup","[0.85,0.15,0.325,0.675]","","",""
"sailing-trial","177","852240","0.0-11.0-136.0","","","","false","","","","","","","","","","233.19999999925494","","354.3999999985099","","0","0","arrowleft","0","arrowleft","[0.85,0.15,0.325,0.675]","","",""
"sailing-trial","178","854556","0.0-11.0-137.0","","","","false","","","","","","","","","","null","","1140.4000000022352","","3","0","null","null","arrowup","[0.85,0.15,0.325,0.675]","","",""
"sailing-trial","179","857089","0.0-11.0-138.0","","","","false","","","","","","","","","","123.19999999925494","","54","","1","0","arrowleft","0","arrowright","[0.85,0.15,0.325,0.675]","","",""
"sailing-trial","180","860480","0.0-11.0-139.0","","","","false","","","","","","","","","","null","","1708.3999999985099","","1","1","null","null","arrowup","[0.85,0.15,0.325,0.675]","","",""
"sailing-trial","181","863512","0.0-11.0-140.0","","","","false","","","","","","","","","","159","","155.5","","3","1","arrowright","1","arrowright","[0.85,0.15,0.325,0.675]","","",""
"sailing-trial","182","865356","0.0-11.0-141.0","","","","false","","","","","","","","","","null","","239.80000000074506","","1","0","null","null","arrowup","[0.85,0.15,0.325,0.675]","","",""
"sailing-trial","183","868473","0.0-11.0-142.0","","","","false","","","","","","","","","","257.5999999977648","","289.69999999925494","","0","1","arrowleft","0","arrowleft","[0.15,0.85,0.675,0.325]","","",""
"sailing-trial","184","870997","0.0-11.0-143.0","","","","false","","","","","","","","","","null","","880.5999999977648","","3","0","null","null","arrowup","[0.15,0.85,0.675,0.325]","","",""
"sailing-trial","185","873879","0.0-11.0-144.0","","","","false","","","","","","","","","","161.60000000149012","","88.19999999925494","","0","1","arrowleft","0","arrowleft","[0.15,0.85,0.675,0.325]","","",""
"sailing-trial","186","875370","0.0-11.0-145.0","","","","false","","","","","","","","","","null","","99","","0","0","null","null","arrowup","[0.15,0.85,0.675,0.325]","","",""
"sailing-trial","187","878090","0.0-11.0-146.0","","","","false","","","","","","","","","","326.20000000298023","","117.5","","0","0","arrowleft","0","arrowleft","[0.15,0.85,0.675,0.325]","","",""
"sailing-trial","188","884156","0.0-11.0-147.0","","","","false","","","","","","","","","","null","","4271.400000002235","","2","1","null","null","arrowup","[0.15,0.85,0.675,0.325]","","",""
"sailing-trial","189","890573","0.0-11.0-148.0","","","","false","","","","","","","","","","3501.89999999851","","43.20000000298023","","3","1","arrowright","1","arrowright","[0.15,0.85,0.675,0.325]","","",""
"sailing-trial","190","895057","0.0-11.0-149.0","","","","false","","","","","","","","","","null","","2629.699999999255","","2","1","null","null","arrowup","[0.15,0.85,0.675,0.325]","","",""
"sailing-trial","191","899272","0.0-11.0-150.0","","","","false","","","","","","","","","","1557.5","","42.80000000074506","","1","0","arrowleft","0","arrowright","[0.15,0.85,0.675,0.325]","","",""
"sailing-trial","192","903396","0.0-11.0-151.0","","","","false","","","","","","","","","","null","","1964.5999999977648","","3","1","null","null","arrowup","[0.15,0.85,0.675,0.325]","","",""
"sailing-trial","193","907076","0.0-11.0-152.0","","","","false","","","","","","","","","","899.6999999992549","","682.3000000007451","","0","0","arrowleft","0","arrowleft","[0.15,0.85,0.675,0.325]","","",""
"sailing-trial","194","909769","0.0-11.0-153.0","","","","false","","","","","","","","","","null","","852.6000000014901","","1","1","null","null","arrowup","[0.15,0.85,0.675,0.325]","","",""
"sailing-trial","195","924786","0.0-11.0-154.0","","","","true","","","","","","","","","","null","","null","","null","null","null","null","null","[0.15,0.85,0.675,0.325]","","",""
"sailing-trial","196","928002","0.0-11.0-155.0","","","","false","","","","","","","","","","null","","1447.4000000022352","","1","1","null","null","arrowup","[0.15,0.85,0.675,0.325]","","",""
"sailing-trial","197","933925","0.0-11.0-156.0","","","","false","","","","","","","","","","1410.8999999985099","","494.1000000014901","","1","0","arrowleft","0","arrowright","[0.15,0.85,0.675,0.325]","","",""
"sailing-trial","198","936018","0.0-11.0-157.0","","","","false","","","","","","","","","","null","","12.800000000745058","","3","1","null","null","arrowup","[0.15,0.85,0.675,0.325]","","",""
"sailing-trial","199","941200","0.0-11.0-158.0","","","","false","","","","","","","","","","496.9000000022352","","676.7000000029802","","0","0","arrowleft","0","arrowleft","[0.15,0.85,0.675,0.325]","","",""
"sailing-trial","200","945220","0.0-11.0-159.0","","","","false","","","","","","","","","","null","","2354","","1","1","null","null","arrowup","[0.15,0.85,0.675,0.325]","","",""
"sailing-trial","201","948133","0.0-11.0-160.0","","","","false","","","","","","","","","","234.5","","415.6000000014901","","3","0","arrowright","1","arrowright","[0.325,0.675,0.85,0.15]","","",""
"sailing-trial","202","950384","0.0-11.0-161.0","","","","false","","","","","","","","","","null","","497.19999999925494","","0","1","null","null","arrowup","[0.325,0.675,0.85,0.15]","","",""
"sailing-trial","203","952663","0.0-11.0-162.0","","","","false","","","","","","","","","","24.5","","154","","0","0","arrowleft","0","arrowleft","[0.325,0.675,0.85,0.15]","","",""
"sailing-trial","204","953792","0.0-11.0-163.0","","","","false","","","","","","","","","","null","","29.800000000745058","","3","0","null","null","arrowup","[0.325,0.675,0.85,0.15]","","",""
"sailing-trial","205","956048","0.0-11.0-164.0","","","","false","","","","","","","","","","2.900000002235174","","123.69999999925494","","0","0","arrowleft","0","arrowleft","[0.325,0.675,0.85,0.15]","","",""
"sailing-trial","206","957801","0.0-11.0-165.0","","","","false","","","","","","","","","","null","","197.29999999701977","","2","1","null","null","arrowup","[0.325,0.675,0.85,0.15]","","",""
"sailing-trial","207","960641","0.0-11.0-166.0","","","","false","","","","","","","","","","241.5","","34.69999999925494","","1","1","arrowleft","0","arrowright","[0.325,0.675,0.85,0.15]","","",""
"sailing-trial","208","962545","0.0-11.0-167.0","","","","false","","","","","","","","","","null","","187.19999999925494","","3","0","null","null","arrowup","[0.325,0.675,0.85,0.15]","","",""
"sailing-trial","209","965774","0.0-11.0-168.0","","","","false","","","","","","","","","","356.3999999985099","","99.40000000223517","","0","1","arrowleft","0","arrowleft","[0.325,0.675,0.85,0.15]","","",""
"sailing-trial","210","967089","0.0-11.0-169.0","","","","false","","","","","","","","","","null","","214.69999999925494","","1","0","null","null","arrowup","[0.325,0.675,0.85,0.15]","","",""
"sailing-trial","211","970029","0.0-11.0-170.0","","","","false","","","","","","","","","","48.19999999925494","","145.60000000149012","","0","1","arrowleft","0","arrowleft","[0.325,0.675,0.85,0.15]","","",""
"sailing-trial","212","971929","0.0-11.0-171.0","","","","false","","","","","","","","","","null","","397.9000000022352","","0","0","null","null","arrowup","[0.325,0.675,0.85,0.15]","","",""
"sailing-trial","213","974914","0.0-11.0-172.0","","","","false","","","","","","","","","","188.5","","21.900000002235174","","0","1","arrowleft","0","arrowleft","[0.325,0.675,0.85,0.15]","","",""
"sailing-trial","214","977588","0.0-11.0-173.0","","","","false","","","","","","","","","","null","","964","","3","0","null","null","arrowup","[0.325,0.675,0.85,0.15]","","",""
"sailing-trial","215","980923","0.0-11.0-174.0","","","","false","","","","","","","","","","396.8999999985099","","197.60000000149012","","0","0","arrowleft","0","arrowleft","[0.325,0.675,0.85,0.15]","","",""
"sailing-trial","216","983641","0.0-11.0-175.0","","","","false","","","","","","","","","","null","","704.8000000007451","","1","1","null","null","arrowup","[0.325,0.675,0.85,0.15]","","",""
"sailing-trial","217","987081","0.0-11.0-176.0","","","","false","","","","","","","","","","956.6000000014901","","178.59999999776483","","0","0","arrowleft","0","arrowleft","[0.325,0.675,0.85,0.15]","","",""
"sailing-trial","218","988941","0.0-11.0-177.0","","","","false","","","","","","","","","","null","","212.39999999850988","","3","1","null","null","arrowup","[0.325,0.675,0.85,0.15]","","",""
"sailing-trial","219","992106","0.0-11.0-178.0","","","","false","","","","","","","","","","437","","642.5999999977648","","0","0","arrowleft","0","arrowleft","[0.15,0.85,0.675,0.325]","","",""
"sailing-trial","220","994090","0.0-11.0-179.0","","","","false","","","","","","","","","","null","","363.80000000074506","","1","1","null","null","arrowup","[0.15,0.85,0.675,0.325]","","",""
"sailing-trial","221","996814","0.0-11.0-180.0","","","","false","","","","","","","","","","285.5999999977648","","72.69999999925494","","2","0","arrowright","1","arrowleft","[0.15,0.85,0.675,0.325]","","",""
"sailing-trial","222","998507","0.0-11.0-181.0","","","","false","","","","","","","","","","null","","49.400000002235174","","1","1","null","null","arrowup","[0.15,0.85,0.675,0.325]","","",""
"sailing-trial","223","1003680","0.0-11.0-182.0","","","","false","","","","","","","","","","484.5","","1304.300000000745","","1","1","arrowleft","0","arrowright","[0.15,0.85,0.675,0.325]","","",""
"sailing-trial","224","1005201","0.0-11.0-183.0","","","","false","","","","","","","","","","null","","166.30000000074506","","2","0","null","null","arrowup","[0.15,0.85,0.675,0.325]","","",""
"sailing-trial","225","1009451","0.0-11.0-184.0","","","","false","","","","","","","","","","462.8999999985099","","81.60000000149012","","0","0","arrowleft","0","arrowleft","[0.15,0.85,0.675,0.325]","","",""
"sailing-trial","226","1011846","0.0-11.0-185.0","","","","false","","","","","","","","","","null","","773.6000000014901","","1","1","null","null","arrowup","[0.15,0.85,0.675,0.325]","","",""
"sailing-trial","227","1016740","0.0-11.0-186.0","","","","false","","","","","","","","","","811.9000000022352","","757","","1","1","arrowleft","0","arrowright","[0.15,0.85,0.675,0.325]","","",""
"sailing-trial","228","1020163","0.0-11.0-187.0","","","","false","","","","","","","","","","null","","1547.5","","2","0","null","null","arrowup","[0.15,0.85,0.675,0.325]","","",""
"sailing-trial","229","1024674","0.0-11.0-188.0","","","","false","","","","","","","","","","1190.1000000014901","","135.19999999925494","","1","1","arrowleft","0","arrowright","[0.15,0.85,0.675,0.325]","","",""
"sailing-trial","230","1028050","0.0-11.0-189.0","","","","false","","","","","","","","","","null","","1324.199999999255","","2","1","null","null","arrowup","[0.15,0.85,0.675,0.325]","","",""
"sailing-trial","231","1032131","0.0-11.0-190.0","","","","false","","","","","","","","","","694.2999999970198","","1086.8999999985099","","3","0","arrowright","1","arrowright","[0.15,0.85,0.675,0.325]","","",""
"sailing-trial","232","1035590","0.0-11.0-191.0","","","","false","","","","","","","","","","null","","825.2999999970198","","0","0","null","null","arrowup","[0.15,0.85,0.675,0.325]","","",""
"sailing-trial","233","1039666","0.0-11.0-192.0","","","","false","","","","","","","","","","1011.8000000007451","","93.5","","2","1","arrowright","1","arrowleft","[0.15,0.85,0.675,0.325]","","",""
"sailing-trial","234","1042990","0.0-11.0-193.0","","","","false","","","","","","","","","","null","","1230.300000000745","","3","1","null","null","arrowup","[0.15,0.85,0.675,0.325]","","",""
"sailing-trial","235","1048015","0.0-11.0-194.0","","","","false","","","","","","","","","","2357.39999999851","","286.6000000014901","","3","0","arrowright","1","arrowright","[0.15,0.85,0.675,0.325]","","",""
"sailing-trial","236","1051198","0.0-11.0-195.0","","","","false","","","","","","","","","","null","","1462.8999999985099","","0","0","null","null","arrowup","[0.15,0.85,0.675,0.325]","","",""
"sailing-trial","237","1054022","0.0-11.0-196.0","","","","false","","","","","","","","","","441","","91.79999999701977","","0","0","arrowleft","0","arrowleft","[0.15,0.85,0.675,0.325]","","",""
"sailing-trial","238","1055832","0.0-11.0-197.0","","","","false","","","","","","","","","","null","","159.59999999776483","","1","1","null","null","arrowup","[0.15,0.85,0.675,0.325]","","",""
"sailing-trial","239","1058239","0.0-11.0-198.0","","","","false","","","","","","","","","","152.59999999776483","","83.69999999925494","","0","0","arrowleft","0","arrowleft","[0.15,0.85,0.675,0.325]","","",""
"sailing-trial","240","1060081","0.0-11.0-199.0","","","","false","","","","","","","","","","null","","280","","2","0","null","null","arrowup","[0.15,0.85,0.675,0.325]","","",""
"sailing-trial","241","1063271","0.0-11.0-200.0","","","","false","","","","","","","","","","842","","195.79999999701977","","0","0","arrowleft","0","arrowleft","[0.325,0.675,0.85,0.15]","","",""
"sailing-trial","242","1065756","0.0-11.0-201.0","","","","false","","","","","","","","","","null","","1468.2000000029802","","3","0","null","null","arrowup","[0.325,0.675,0.85,0.15]","","",""
"sailing-trial","243","1071615","0.0-11.0-202.0","","","","false","","","","","","","","","","2788.800000000745","","442.5","","0","1","arrowleft","0","arrowleft","[0.325,0.675,0.85,0.15]","","",""
"sailing-trial","244","1074182","0.0-11.0-203.0","","","","false","","","","","","","","","","null","","699.9000000022352","","1","1","null","null","arrowup","[0.325,0.675,0.85,0.15]","","",""
"sailing-trial","245","1077105","0.0-11.0-204.0","","","","false","","","","","","","","","","152.39999999850988","","4","","0","0","arrowleft","0","arrowleft","[0.325,0.675,0.85,0.15]","","",""
"sailing-trial","246","1079197","0.0-11.0-205.0","","","","false","","","","","","","","","","null","","990.1999999992549","","0","0","null","null","arrowup","[0.325,0.675,0.85,0.15]","","",""
"sailing-trial","247","1084372","0.0-11.0-206.0","","","","false","","","","","","","","","","1442.6000000014901","","1009.4000000022352","","0","1","arrowleft","0","arrowleft","[0.325,0.675,0.85,0.15]","","",""
"sailing-trial","248","1086088","0.0-11.0-207.0","","","","false","","","","","","","","","","null","","58.19999999925494","","1","1","null","null","arrowup","[0.325,0.675,0.85,0.15]","","",""
"sailing-trial","249","1088678","0.0-11.0-208.0","","","","false","","","","","","","","","","297.4000000022352","","152","","0","0","arrowleft","0","arrowleft","[0.325,0.675,0.85,0.15]","","",""
"sailing-trial","250","1090755","0.0-11.0-209.0","","","","false","","","","","","","","","","null","","458.80000000074506","","2","1","null","null","arrowup","[0.325,0.675,0.85,0.15]","","",""
"sailing-trial","251","1095029","0.0-11.0-210.0","","","","false","","","","","","","","","","525.2999999970198","","76.60000000149012","","2","1","arrowright","1","arrowleft","[0.325,0.675,0.85,0.15]","","",""
"sailing-trial","252","1098121","0.0-11.0-211.0","","","","false","","","","","","","","","","null","","934.1999999992549","","2","1","null","null","arrowup","[0.325,0.675,0.85,0.15]","","",""
"sailing-trial","253","1104073","0.0-11.0-212.0","","","","false","","","","","","","","","","3290.099999997765","","30.5","","0","1","arrowleft","0","arrowleft","[0.325,0.675,0.85,0.15]","","",""
"sailing-trial","254","1105838","0.0-11.0-213.0","","","","false","","","","","","","","","","null","","197.39999999850988","","1","1","null","null","arrowup","[0.325,0.675,0.85,0.15]","","",""
"sailing-trial","255","1112144","0.0-11.0-214.0","","","","false","","","","","","","","","","2047","","1238.199999999255","","0","0","arrowleft","0","arrowleft","[0.325,0.675,0.85,0.15]","","",""
"sailing-trial","256","1114504","0.0-11.0-215.0","","","","false","","","","","","","","","","null","","318.5","","1","1","null","null","arrowup","[0.325,0.675,0.85,0.15]","","",""
"sailing-trial","257","1120321","0.0-11.0-216.0","","","","false","","","","","","","","","","766.6999999992549","","2244","","0","1","arrowleft","0","arrowleft","[0.325,0.675,0.85,0.15]","","",""
"sailing-trial","258","1122654","0.0-11.0-217.0","","","","false","","","","","","","","","","null","","509.5999999977648","","2","1","null","null","arrowup","[0.325,0.675,0.85,0.15]","","",""
"sailing-trial","259","1125420","0.0-11.0-218.0","","","","false","","","","","","","","","","65.60000000149012","","155.19999999925494","","0","0","arrowleft","0","arrowleft","[0.325,0.675,0.85,0.15]","","",""
"sailing-trial","260","1127261","0.0-11.0-219.0","","","","false","","","","","","","","","","null","","233.30000000074506","","3","1","null","null","arrowup","[0.325,0.675,0.85,0.15]","","",""
"sailing-trial","261","1130753","0.0-11.0-220.0","","","","false","","","","","","","","","","8.699999999254942","","1112","","1","0","arrowleft","0","arrowright","[0.675,0.325,0.15,0.85]","","",""
"sailing-trial","262","1134344","0.0-11.0-221.0","","","","false","","","","","","","","","","null","","2353.60000000149","","1","0","null","null","arrowup","[0.675,0.325,0.15,0.85]","","",""
"sailing-trial","263","1137154","0.0-11.0-222.0","","","","false","","","","","","","","","","116.19999999925494","","10.400000002235174","","1","1","arrowleft","0","arrowright","[0.675,0.325,0.15,0.85]","","",""
"sailing-trial","264","1139710","0.0-11.0-223.0","","","","false","","","","","","","","","","null","","902","","1","1","null","null","arrowup","[0.675,0.325,0.15,0.85]","","",""
"sailing-trial","265","1142018","0.0-11.0-224.0","","","","false","","","","","","","","","","32.099999997764826","","24.100000001490116","","2","0","arrowright","1","arrowleft","[0.675,0.325,0.15,0.85]","","",""
"sailing-trial","266","1143419","0.0-11.0-225.0","","","","false","","","","","","","","","","null","","244.69999999925494","","1","0","null","null","arrowup","[0.675,0.325,0.15,0.85]","","",""
"sailing-trial","267","1146436","0.0-11.0-226.0","","","","false","","","","","","","","","","177.30000000074506","","94.59999999776483","","0","1","arrowleft","0","arrowleft","[0.675,0.325,0.15,0.85]","","",""
"sailing-trial","268","1148503","0.0-11.0-227.0","","","","false","","","","","","","","","","null","","432","","0","1","null","null","arrowup","[0.675,0.325,0.15,0.85]","","",""
"sailing-trial","269","1151842","0.0-11.0-228.0","","","","false","","","","","","","","","","20.199999999254942","","102.40000000223517","","3","1","arrowright","1","arrowright","[0.675,0.325,0.15,0.85]","","",""
"sailing-trial","270","1153602","0.0-11.0-229.0","","","","false","","","","","","","","","","null","","754.3000000007451","","1","0","null","null","arrowup","[0.675,0.325,0.15,0.85]","","",""
"sailing-trial","271","1156201","0.0-11.0-230.0","","","","false","","","","","","","","","","185.19999999925494","","135.09999999776483","","2","0","arrowright","1","arrowleft","[0.675,0.325,0.15,0.85]","","",""
"sailing-trial","272","1157974","0.0-11.0-231.0","","","","false","","","","","","","","","","null","","156.60000000149012","","2","1","null","null","arrowup","[0.675,0.325,0.15,0.85]","","",""
"sailing-trial","273","1160876","0.0-11.0-232.0","","","","false","","","","","","","","","","317.29999999701977","","231","","1","0","arrowleft","0","arrowright","[0.675,0.325,0.15,0.85]","","",""
"sailing-trial","274","1162776","0.0-11.0-233.0","","","","false","","","","","","","","","","null","","341.8999999985099","","0","1","null","null","arrowup","[0.675,0.325,0.15,0.85]","","",""
"sailing-trial","275","1166085","0.0-11.0-234.0","","","","false","","","","","","","","","","199.39999999850988","","188.60000000149012","","0","1","arrowleft","0","arrowleft","[0.675,0.325,0.15,0.85]","","",""
"sailing-trial","276","1167301","0.0-11.0-235.0","","","","false","","","","","","","","","","null","","134.5","","2","0","null","null","arrowup","[0.675,0.325,0.15,0.85]","","",""
"sailing-trial","277","1170226","0.0-11.0-236.0","","","","false","","","","","","","","","","591.3000000007451","","92.29999999701977","","0","0","arrowleft","0","arrowleft","[0.675,0.325,0.15,0.85]","","",""
"sailing-trial","278","1172943","0.0-11.0-237.0","","","","false","","","","","","","","","","null","","487.5999999977648","","1","1","null","null","arrowup","[0.675,0.325,0.15,0.85]","","",""
"sailing-trial","279","1178486","0.0-11.0-238.0","","","","false","","","","","","","","","","1450.800000000745","","1367.800000000745","","0","1","arrowleft","0","arrowleft","[0.675,0.325,0.15,0.85]","","",""
"sailing-trial","280","1180840","0.0-11.0-239.0","","","","false","","","","","","","","","","null","","430.80000000074506","","1","1","null","null","arrowup","[0.675,0.325,0.15,0.85]","","",""
"sailing-trial","281","1185002","0.0-11.0-240.0","","","","false","","","","","","","","","","473.1000000014901","","443.20000000298023","","1","1","arrowleft","0","arrowright","[0.675,0.325,0.15,0.85]","","",""
"sailing-trial","282","1188292","0.0-11.0-241.0","","","","false","","","","","","","","","","null","","1618.800000000745","","1","1","null","null","arrowup","[0.675,0.325,0.15,0.85]","","",""
"sailing-trial","283","1191318","0.0-11.0-242.0","","","","false","","","","","","","","","","126","","269.9000000022352","","0","1","arrowleft","0","arrowleft","[0.85,0.15,0.325,0.675]","","",""
"sailing-trial","284","1194340","0.0-11.0-243.0","","","","false","","","","","","","","","","null","","1356.699999999255","","0","1","null","null","arrowup","[0.85,0.15,0.325,0.675]","","",""
"sailing-trial","285","1198991","0.0-11.0-244.0","","","","false","","","","","","","","","","809.3999999985099","","308.19999999925494","","0","1","arrowleft","0","arrowleft","[0.85,0.15,0.325,0.675]","","",""
"sailing-trial","286","1200871","0.0-11.0-245.0","","","","false","","","","","","","","","","null","","104.80000000074506","","3","1","null","null","arrowup","[0.85,0.15,0.325,0.675]","","",""
"sailing-trial","287","1203681","0.0-11.0-246.0","","","","false","","","","","","","","","","573.3000000007451","","239","","1","0","arrowleft","0","arrowright","[0.85,0.15,0.325,0.675]","","",""
"sailing-trial","288","1207744","0.0-11.0-247.0","","","","false","","","","","","","","","","null","","2063.5","","0","1","null","null","arrowup","[0.85,0.15,0.325,0.675]","","",""
"sailing-trial","289","1212541","0.0-11.0-248.0","","","","false","","","","","","","","","","1678.800000000745","","326.5","","2","1","arrowright","1","arrowleft","[0.85,0.15,0.325,0.675]","","",""
"sailing-trial","290","1215034","0.0-11.0-249.0","","","","false","","","","","","","","","","null","","314.30000000074506","","2","1","null","null","arrowup","[0.85,0.15,0.325,0.675]","","",""
"sailing-trial","291","1218217","0.0-11.0-250.0","","","","false","","","","","","","","","","275.8999999985099","","262.5999999977648","","1","0","arrowleft","0","arrowright","[0.85,0.15,0.325,0.675]","","",""
"sailing-trial","292","1220475","0.0-11.0-251.0","","","","false","","","","","","","","","","null","","40.69999999925494","","3","0","null","null","arrowup","[0.85,0.15,0.325,0.675]","","",""
"sailing-trial","293","1223564","0.0-11.0-252.0","","","","false","","","","","","","","","","205.5","","516.7000000029802","","1","0","arrowleft","0","arrowright","[0.85,0.15,0.325,0.675]","","",""
"sailing-trial","294","1225484","0.0-11.0-253.0","","","","false","","","","","","","","","","null","","363.69999999925494","","2","1","null","null","arrowup","[0.85,0.15,0.325,0.675]","","",""
"sailing-trial","295","1228951","0.0-11.0-254.0","","","","false","","","","","","","","","","24.300000000745058","","737.5999999977648","","0","1","arrowleft","0","arrowleft","[0.85,0.15,0.325,0.675]","","",""
"sailing-trial","296","1231301","0.0-11.0-255.0","","","","false","","","","","","","","","","null","","615.5999999977648","","3","1","null","null","arrowup","[0.85,0.15,0.325,0.675]","","",""
"sailing-trial","297","1235700","0.0-11.0-256.0","","","","false","","","","","","","","","","2181.39999999851","","167.70000000298023","","0","0","arrowleft","0","arrowleft","[0.85,0.15,0.325,0.675]","","",""
"sailing-trial","298","1238097","0.0-11.0-257.0","","","","false","","","","","","","","","","null","","929.1999999992549","","3","0","null","null","arrowup","[0.85,0.15,0.325,0.675]","","",""
"sailing-trial","299","1241984","0.0-11.0-258.0","","","","false","","","","","","","","","","1118.8999999985099","","194.20000000298023","","0","1","arrowleft","0","arrowleft","[0.85,0.15,0.325,0.675]","","",""
"sailing-trial","300","1244235","0.0-11.0-259.0","","","","false","","","","","","","","","","null","","346.19999999925494","","0","1","null","null","arrowup","[0.85,0.15,0.325,0.675]","","",""
"sailing-trial","301","1248634","0.0-11.0-260.0","","","","false","","","","","","","","","","400.69999999925494","","339.19999999925494","","0","1","arrowleft","0","arrowleft","[0.85,0.15,0.325,0.675]","","",""
"sailing-trial","302","1251151","0.0-11.0-261.0","","","","false","","","","","","","","","","null","","710","","2","0","null","null","arrowup","[0.85,0.15,0.325,0.675]","","",""
"sailing-trial","303","1254362","0.0-11.0-262.0","","","","false","","","","","","","","","","365","","343.30000000074506","","0","0","arrowleft","0","arrowleft","[0.15,0.85,0.675,0.325]","","",""
"sailing-trial","304","1258550","0.0-11.0-263.0","","","","false","","","","","","","","","","null","","2426.699999999255","","3","0","null","null","arrowup","[0.15,0.85,0.675,0.325]","","",""
"sailing-trial","305","1263884","0.0-11.0-264.0","","","","false","","","","","","","","","","1953.800000000745","","37.399999998509884","","1","1","arrowleft","0","arrowright","[0.15,0.85,0.675,0.325]","","",""
"sailing-trial","306","1266266","0.0-11.0-265.0","","","","false","","","","","","","","","","null","","192.90000000223517","","2","1","null","null","arrowup","[0.15,0.85,0.675,0.325]","","",""
"sailing-trial","307","1270013","0.0-11.0-266.0","","","","false","","","","","","","","","","876.5","","295.80000000074506","","2","0","arrowright","1","arrowleft","[0.15,0.85,0.675,0.325]","","",""
"sailing-trial","308","1272638","0.0-11.0-267.0","","","","false","","","","","","","","","","null","","989.1999999992549","","2","0","null","null","arrowup","[0.15,0.85,0.675,0.325]","","",""
"sailing-trial","309","1275627","0.0-11.0-268.0","","","","false","","","","","","","","","","202.09999999776483","","107.90000000223517","","0","0","arrowleft","0","arrowleft","[0.15,0.85,0.675,0.325]","","",""
"sailing-trial","310","1279023","0.0-11.0-269.0","","","","false","","","","","","","","","","null","","1626.5","","2","1","null","null","arrowup","[0.15,0.85,0.675,0.325]","","",""
"sailing-trial","311","1282915","0.0-11.0-270.0","","","","false","","","","","","","","","","1714","","163.19999999925494","","0","0","arrowleft","0","arrowleft","[0.15,0.85,0.675,0.325]","","",""
"sailing-trial","312","1284415","0.0-11.0-271.0","","","","false","","","","","","","","","","null","","291.3999999985099","","0","0","null","null","arrowup","[0.15,0.85,0.675,0.325]","","",""
"sailing-trial","313","1287748","0.0-11.0-272.0","","","","false","","","","","","","","","","827.1000000014901","","192.89999999850988","","0","0","arrowleft","0","arrowleft","[0.15,0.85,0.675,0.325]","","",""
"sailing-trial","314","1289559","0.0-11.0-273.0","","","","false","","","","","","","","","","null","","720.5","","2","0","null","null","arrowup","[0.15,0.85,0.675,0.325]","","",""
"sailing-trial","315","1292650","0.0-11.0-274.0","","","","false","","","","","","","","","","61.80000000074506","","170.09999999776483","","2","1","arrowright","1","arrowleft","[0.15,0.85,0.675,0.325]","","",""
"sailing-trial","316","1293802","0.0-11.0-275.0","","","","false","","","","","","","","","","null","","6.399999998509884","","0","0","null","null","arrowup","[0.15,0.85,0.675,0.325]","","",""
"sailing-trial","317","1297886","0.0-11.0-276.0","","","","false","","","","","","","","","","929.7000000029802","","493.4000000022352","","2","1","arrowright","1","arrowleft","[0.15,0.85,0.675,0.325]","","",""
"sailing-trial","318","1300086","0.0-11.0-277.0","","","","false","","","","","","","","","","null","","367.69999999925494","","2","1","null","null","arrowup","[0.15,0.85,0.675,0.325]","","",""
"sailing-trial","319","1303048","0.0-11.0-278.0","","","","false","","","","","","","","","","630.1000000014901","","294.6000000014901","","0","0","arrowleft","0","arrowleft","[0.15,0.85,0.675,0.325]","","",""
"sailing-trial","320","1306598","0.0-11.0-279.0","","","","false","","","","","","","","","","null","","2165.89999999851","","3","0","null","null","arrowup","[0.15,0.85,0.675,0.325]","","",""
"sailing-trial","321","1309639","0.0-11.0-280.0","","","","false","","","","","","","","","","653.4000000022352","","328.30000000074506","","0","0","arrowleft","0","arrowleft","[0.325,0.675,0.85,0.15]","","",""
"sailing-trial","322","1311381","0.0-11.0-281.0","","","","false","","","","","","","","","","null","","546.3000000007451","","1","0","null","null","arrowup","[0.325,0.675,0.85,0.15]","","",""
"sailing-trial","323","1313604","0.0-11.0-282.0","","","","false","","","","","","","","","","60.600000001490116","","24.5","","0","0","arrowleft","0","arrowleft","[0.325,0.675,0.85,0.15]","","",""
"sailing-trial","324","1316588","0.0-11.0-283.0","","","","false","","","","","","","","","","null","","1299.9000000022352","","1","1","null","null","arrowup","[0.325,0.675,0.85,0.15]","","",""
"sailing-trial","325","1320032","0.0-11.0-284.0","","","","false","","","","","","","","","","437.4000000022352","","140.60000000149012","","1","1","arrowleft","0","arrowright","[0.325,0.675,0.85,0.15]","","",""
"sailing-trial","326","1321348","0.0-11.0-285.0","","","","false","","","","","","","","","","null","","130.39999999850988","","3","0","null","null","arrowup","[0.325,0.675,0.85,0.15]","","",""
"sailing-trial","327","1324395","0.0-11.0-286.0","","","","false","","","","","","","","","","297.30000000074506","","82.30000000074506","","1","0","arrowleft","0","arrowright","[0.325,0.675,0.85,0.15]","","",""
"sailing-trial","328","1327510","0.0-11.0-287.0","","","","false","","","","","","","","","","null","","985.8999999985099","","0","1","null","null","arrowup","[0.325,0.675,0.85,0.15]","","",""
"sailing-trial","329","1330431","0.0-11.0-288.0","","","","false","","","","","","","","","","64","","261.30000000074506","","1","0","arrowleft","0","arrowright","[0.325,0.675,0.85,0.15]","","",""
"sailing-trial","330","1333994","0.0-11.0-289.0","","","","false","","","","","","","","","","null","","1403.4000000022352","","1","1","null","null","arrowup","[0.325,0.675,0.85,0.15]","","",""
"sailing-trial","331","1337959","0.0-11.0-290.0","","","","false","","","","","","","","","","1223.4000000022352","","700.5","","0","0","arrowleft","0","arrowleft","[0.325,0.675,0.85,0.15]","","",""
"sailing-trial","332","1339333","0.0-11.0-291.0","","","","false","","","","","","","","","","null","","301.70000000298023","","3","0","null","null","arrowup","[0.325,0.675,0.85,0.15]","","",""
"sailing-trial","333","1342667","0.0-11.0-292.0","","","","false","","","","","","","","","","354.4000000022352","","366.8999999985099","","1","1","arrowleft","0","arrowright","[0.325,0.675,0.85,0.15]","","",""
"sailing-trial","334","1344383","0.0-11.0-293.0","","","","false","","","","","","","","","","null","","558.8000000007451","","0","0","null","null","arrowup","[0.325,0.675,0.85,0.15]","","",""
"sailing-trial","335","1347026","0.0-11.0-294.0","","","","false","","","","","","","","","","314.80000000074506","","146.60000000149012","","0","0","arrowleft","0","arrowleft","[0.325,0.675,0.85,0.15]","","",""
"sailing-trial","336","1348906","0.0-11.0-295.0","","","","false","","","","","","","","","","null","","593.6999999992549","","3","0","null","null","arrowup","[0.325,0.675,0.85,0.15]","","",""
"sailing-trial","337","1351942","0.0-11.0-296.0","","","","false","","","","","","","","","","271.5","","595.1999999992549","","3","0","arrowright","1","arrowright","[0.15,0.85,0.675,0.325]","","",""
"sailing-trial","338","1354754","0.0-11.0-297.0","","","","false","","","","","","","","","","null","","1443","","1","0","null","null","arrowup","[0.15,0.85,0.675,0.325]","","",""
"sailing-trial","339","1358926","0.0-11.0-298.0","","","","false","","","","","","","","","","566.1000000014901","","1375.800000000745","","0","0","arrowleft","0","arrowleft","[0.15,0.85,0.675,0.325]","","",""
"sailing-trial","340","1363709","0.0-11.0-299.0","","","","false","","","","","","","","","","null","","2246.199999999255","","3","0","null","null","arrowup","[0.15,0.85,0.675,0.325]","","",""
"sailing-trial","341","1366863","0.0-11.0-300.0","","","","false","","","","","","","","","","84.19999999925494","","926.6999999992549","","0","0","arrowleft","0","arrowleft","[0.15,0.85,0.675,0.325]","","",""
"sailing-trial","342","1368050","0.0-11.0-301.0","","","","false","","","","","","","","","","null","","84.60000000149012","","0","0","null","null","arrowup","[0.15,0.85,0.675,0.325]","","",""
"sailing-trial","343","1371916","0.0-11.0-302.0","","","","false","","","","","","","","","","748.8999999985099","","489.4000000022352","","3","1","arrowright","1","arrowright","[0.15,0.85,0.675,0.325]","","",""
"sailing-trial","344","1374576","0.0-11.0-303.0","","","","false","","","","","","","","","","null","","781.3999999985099","","1","1","null","null","arrowup","[0.15,0.85,0.675,0.325]","","",""
"sailing-trial","345","1378238","0.0-11.0-304.0","","","","false","","","","","","","","","","211.89999999850988","","170.39999999850988","","0","0","arrowleft","0","arrowleft","[0.15,0.85,0.675,0.325]","","",""
"sailing-trial","346","1380392","0.0-11.0-305.0","","","","false","","","","","","","","","","null","","609.5","","1","1","null","null","arrowup","[0.15,0.85,0.675,0.325]","","",""
"sailing-trial","347","1384192","0.0-11.0-306.0","","","","false","","","","","","","","","","201.09999999776483","","381.79999999701977","","2","1","arrowright","1","arrowleft","[0.15,0.85,0.675,0.325]","","",""
"sailing-trial","348","1385450","0.0-11.0-307.0","","","","false","","","","","","","","","","null","","181.10000000149012","","0","0","null","null","arrowup","[0.15,0.85,0.675,0.325]","","",""
"sailing-trial","349","1388663","0.0-11.0-308.0","","","","false","","","","","","","","","","653.9000000022352","","222.89999999850988","","0","0","arrowleft","0","arrowleft","[0.15,0.85,0.675,0.325]","","",""
"sailing-trial","350","1389822","0.0-11.0-309.0","","","","false","","","","","","","","","","null","","119.30000000074506","","0","0","null","null","arrowup","[0.15,0.85,0.675,0.325]","","",""
"sailing-trial","351","1392863","0.0-11.0-310.0","","","","false","","","","","","","","","","758.3000000007451","","241.09999999776483","","0","0","arrowleft","0","arrowleft","[0.15,0.85,0.675,0.325]","","",""
"sailing-trial","352","1398200","0.0-11.0-311.0","","","","false","","","","","","","","","","null","","4144.099999997765","","0","0","null","null","arrowup","[0.15,0.85,0.675,0.325]","","",""
"sailing-trial","353","1401730","0.0-11.0-312.0","","","","false","","","","","","","","","","384.3999999985099","","215.5","","1","1","arrowleft","0","arrowright","[0.325,0.675,0.85,0.15]","","",""
"sailing-trial","354","1403687","0.0-11.0-313.0","","","","false","","","","","","","","","","null","","58.70000000298023","","1","1","null","null","arrowup","[0.325,0.675,0.85,0.15]","","",""
"sailing-trial","355","1407205","0.0-11.0-314.0","","","","false","","","","","","","","","","532.6000000014901","","242.60000000149012","","1","1","arrowleft","0","arrowright","[0.325,0.675,0.85,0.15]","","",""
"sailing-trial","356","1410054","0.0-11.0-315.0","","","","false","","","","","","","","","","null","","1541.3999999985099","","3","0","null","null","arrowup","[0.325,0.675,0.85,0.15]","","",""
"sailing-trial","357","1412696","0.0-11.0-316.0","","","","false","","","","","","","","","","188.19999999925494","","162.79999999701977","","0","0","arrowleft","0","arrowleft","[0.325,0.675,0.85,0.15]","","",""
"sailing-trial","358","1414880","0.0-11.0-317.0","","","","false","","","","","","","","","","null","","590.6999999992549","","3","1","null","null","arrowup","[0.325,0.675,0.85,0.15]","","",""
"sailing-trial","359","1417709","0.0-11.0-318.0","","","","false","","","","","","","","","","551.8999999985099","","176.89999999850988","","3","0","arrowright","1","arrowright","[0.325,0.675,0.85,0.15]","","",""
"sailing-trial","360","1420913","0.0-11.0-319.0","","","","false","","","","","","","","","","null","","1190.300000000745","","0","1","null","null","arrowup","[0.325,0.675,0.85,0.15]","","",""
"sailing-trial","361","1424379","0.0-11.0-320.0","","","","false","","","","","","","","","","251.5","","98.30000000074506","","2","1","arrowright","1","arrowleft","[0.325,0.675,0.85,0.15]","","",""
"sailing-trial","362","1427245","0.0-11.0-321.0","","","","false","","","","","","","","","","null","","1661.800000000745","","0","0","null","null","arrowup","[0.325,0.675,0.85,0.15]","","",""
"sailing-trial","363","1431061","0.0-11.0-322.0","","","","false","","","","","","","","","","1389.800000000745","","386.9000000022352","","0","0","arrowleft","0","arrowleft","[0.325,0.675,0.85,0.15]","","",""
"sailing-trial","364","1432746","0.0-11.0-323.0","","","","false","","","","","","","","","","null","","125.59999999776483","","2","1","null","null","arrowup","[0.325,0.675,0.85,0.15]","","",""
"sailing-trial","365","1435528","0.0-11.0-324.0","","","","false","","","","","","","","","","463","","30.5","","0","0","arrowleft","0","arrowleft","[0.325,0.675,0.85,0.15]","","",""
"sailing-trial","366","1438853","0.0-11.0-325.0","","","","false","","","","","","","","","","null","","1734.699999999255","","1","1","null","null","arrowup","[0.325,0.675,0.85,0.15]","","",""
"sailing-trial","367","1441463","0.0-11.0-326.0","","","","false","","","","","","","","","","10.600000001490116","","33.30000000074506","","0","1","arrowleft","0","arrowleft","[0.325,0.675,0.85,0.15]","","",""
"sailing-trial","368","1444219","0.0-11.0-327.0","","","","false","","","","","","","","","","null","","474.1000000014901","","2","1","null","null","arrowup","[0.325,0.675,0.85,0.15]","","",""
"sailing-trial","369","1447525","0.0-11.0-328.0","","","","false","","","","","","","","","","1091.9000000022352","","146.69999999925494","","0","0","arrowleft","0","arrowleft","[0.15,0.85,0.675,0.325]","","",""
"sailing-trial","370","1450126","0.0-11.0-329.0","","","","false","","","","","","","","","","null","","1054.0999999977648","","2","1","null","null","arrowup","[0.15,0.85,0.675,0.325]","","",""
"sailing-trial","371","1452639","0.0-11.0-330.0","","","","false","","","","","","","","","","89.60000000149012","","303.9000000022352","","0","0","arrowleft","0","arrowleft","[0.15,0.85,0.675,0.325]","","",""
"sailing-trial","372","1454342","0.0-11.0-331.0","","","","false","","","","","","","","","","null","","2.199999999254942","","1","1","null","null","arrowup","[0.15,0.85,0.675,0.325]","","",""
"sailing-trial","373","1456818","0.0-11.0-332.0","","","","false","","","","","","","","","","49.29999999701977","","323.5999999977648","","0","0","arrowleft","0","arrowleft","[0.15,0.85,0.675,0.325]","","",""
"sailing-trial","374","1459026","0.0-11.0-333.0","","","","false","","","","","","","","","","null","","441.8999999985099","","3","1","null","null","arrowup","[0.15,0.85,0.675,0.325]","","",""
"sailing-trial","375","1462258","0.0-11.0-334.0","","","","false","","","","","","","","","","199.69999999925494","","217","","0","1","arrowleft","0","arrowleft","[0.15,0.85,0.675,0.325]","","",""
"sailing-trial","376","1463466","0.0-11.0-335.0","","","","false","","","","","","","","","","null","","26.5","","2","0","null","null","arrowup","[0.15,0.85,0.675,0.325]","","",""
"sailing-trial","377","1466375","0.0-11.0-336.0","","","","false","","","","","","","","","","172.30000000074506","","333.1000000014901","","0","0","arrowleft","0","arrowleft","[0.15,0.85,0.675,0.325]","","",""
"sailing-trial","378","1468286","0.0-11.0-337.0","","","","false","","","","","","","","","","null","","361.8999999985099","","0","0","null","null","arrowup","[0.15,0.85,0.675,0.325]","","",""
"sailing-trial","379","1472449","0.0-11.0-338.0","","","","false","","","","","","","","","","1310.699999999255","","303.4000000022352","","0","0","arrowleft","0","arrowleft","[0.15,0.85,0.675,0.325]","","",""
"sailing-trial","380","1474869","0.0-11.0-339.0","","","","false","","","","","","","","","","null","","1342.5","","0","0","null","null","arrowup","[0.15,0.85,0.675,0.325]","","",""
"sailing-trial","381","1478338","0.0-11.0-340.0","","","","false","","","","","","","","","","377.80000000074506","","765.4000000022352","","0","0","arrowleft","0","arrowleft","[0.15,0.85,0.675,0.325]","","",""
"sailing-trial","382","1479873","0.0-11.0-341.0","","","","false","","","","","","","","","","null","","432.6000000014901","","3","0","null","null","arrowup","[0.15,0.85,0.675,0.325]","","",""
"sailing-trial","383","1483908","0.0-11.0-342.0","","","","false","","","","","","","","","","1412.800000000745","","527.3000000007451","","0","0","arrowleft","0","arrowleft","[0.15,0.85,0.675,0.325]","","",""
"sailing-trial","384","1485798","0.0-11.0-343.0","","","","false","","","","","","","","","","null","","294.5999999977648","","3","1","null","null","arrowup","[0.15,0.85,0.675,0.325]","","",""
"sailing-trial","385","1488781","0.0-11.0-344.0","","","","false","","","","","","","","","","236.79999999701977","","495.80000000074506","","0","0","arrowleft","0","arrowleft","[0.675,0.325,0.15,0.85]","","",""
"sailing-trial","386","1492025","0.0-11.0-345.0","","","","false","","","","","","","","","","null","","1360.199999999255","","0","1","null","null","arrowup","[0.675,0.325,0.15,0.85]","","",""
"sailing-trial","387","1495775","0.0-11.0-346.0","","","","false","","","","","","","","","","608.8000000007451","","307.69999999925494","","0","1","arrowleft","0","arrowleft","[0.675,0.325,0.15,0.85]","","",""
"sailing-trial","388","1498398","0.0-11.0-347.0","","","","false","","","","","","","","","","null","","1181.5","","1","0","null","null","arrowup","[0.675,0.325,0.15,0.85]","","",""
"sailing-trial","389","1501557","0.0-11.0-348.0","","","","false","","","","","","","","","","177.40000000223517","","329.8999999985099","","0","0","arrowleft","0","arrowleft","[0.675,0.325,0.15,0.85]","","",""
"sailing-trial","390","1504274","0.0-11.0-349.0","","","","false","","","","","","","","","","null","","1163.7000000029802","","0","1","null","null","arrowup","[0.675,0.325,0.15,0.85]","","",""
"sailing-trial","391","1507848","0.0-11.0-350.0","","","","false","","","","","","","","","","1072.800000000745","","112.69999999925494","","0","0","arrowleft","0","arrowleft","[0.675,0.325,0.15,0.85]","","",""
"sailing-trial","392","1510127","0.0-11.0-351.0","","","","false","","","","","","","","","","null","","455.20000000298023","","3","1","null","null","arrowup","[0.675,0.325,0.15,0.85]","","",""
"sailing-trial","393","1519409","0.0-11.0-352.0","","","","false","","","","","","","","","","1215.6000000014901","","5523.70000000298","","0","1","arrowleft","0","arrowleft","[0.675,0.325,0.15,0.85]","","",""
"sailing-trial","394","1521907","0.0-11.0-353.0","","","","false","","","","","","","","","","null","","337.19999999925494","","1","1","null","null","arrowup","[0.675,0.325,0.15,0.85]","","",""
"sailing-trial","395","1526264","0.0-11.0-354.0","","","","false","","","","","","","","","","1757.4000000022352","","315.29999999701977","","0","0","arrowleft","0","arrowleft","[0.675,0.325,0.15,0.85]","","",""
"sailing-trial","396","1529047","0.0-11.0-355.0","","","","false","","","","","","","","","","null","","491.5","","3","1","null","null","arrowup","[0.675,0.325,0.15,0.85]","","",""
"sailing-trial","397","1531461","0.0-11.0-356.0","","","","false","","","","","","","","","","314.0999999977648","","79.19999999925494","","0","0","arrowleft","0","arrowleft","[0.675,0.325,0.15,0.85]","","",""
"sailing-trial","398","1532956","0.0-11.0-357.0","","","","false","","","","","","","","","","null","","149.60000000149012","","2","0","null","null","arrowup","[0.675,0.325,0.15,0.85]","","",""
"sailing-trial","399","1536123","0.0-11.0-358.0","","","","false","","","","","","","","","","282.80000000074506","","202.89999999850988","","0","1","arrowleft","0","arrowleft","[0.675,0.325,0.15,0.85]","","",""
"sailing-trial","400","1538640","0.0-11.0-359.0","","","","false","","","","","","","","","","null","","316.5","","3","1","null","null","arrowup","[0.675,0.325,0.15,0.85]","","",""
"sailing-trial","401","1541447","0.0-11.0-360.0","","","","false","","","","","","","","","","126.09999999776483","","91.39999999850988","","0","1","arrowleft","0","arrowleft","[0.675,0.325,0.15,0.85]","","",""
"sailing-trial","402","1543890","0.0-11.0-361.0","","","","false","","","","","","","","","","null","","760.8000000007451","","3","1","null","null","arrowup","[0.675,0.325,0.15,0.85]","","",""
"sailing-trial","403","1546940","0.0-11.0-362.0","","","","false","","","","","","","","","","234.89999999850988","","6.199999999254942","","0","1","arrowleft","0","arrowleft","[0.675,0.325,0.15,0.85]","","",""
"sailing-trial","404","1548347","0.0-11.0-363.0","","","","false","","","","","","","","","","null","","137.70000000298023","","2","0","null","null","arrowup","[0.675,0.325,0.15,0.85]","","",""
"sailing-trial","405","1553176","0.0-11.0-364.0","","","","false","","","","","","","","","","678.0999999977648","","697.5999999977648","","0","1","arrowleft","0","arrowleft","[0.675,0.325,0.15,0.85]","","",""
"sailing-trial","406","1555246","0.0-11.0-365.0","","","","false","","","","","","","","","","null","","95.19999999925494","","3","1","null","null","arrowup","[0.675,0.325,0.15,0.85]","","",""
"sailing-trial","407","1559073","0.0-11.0-366.0","","","","false","","","","","","","","","","184.29999999701977","","796.6999999992549","","0","1","arrowleft","0","arrowleft","[0.675,0.325,0.15,0.85]","","",""
"sailing-trial","408","1561673","0.0-11.0-367.0","","","","false","","","","","","","","","","null","","753.1000000014901","","3","1","null","null","arrowup","[0.675,0.325,0.15,0.85]","","",""
"sailing-trial","409","1564822","0.0-11.0-368.0","","","","false","","","","","","","","","","574.8999999985099","","391.69999999925494","","1","0","arrowleft","0","arrowright","[0.85,0.15,0.325,0.675]","","",""
"sailing-trial","410","1566575","0.0-11.0-369.0","","","","false","","","","","","","","","","null","","650.3000000007451","","1","0","null","null","arrowup","[0.85,0.15,0.325,0.675]","","",""
"sailing-trial","411","1568956","0.0-11.0-370.0","","","","false","","","","","","","","","","149.69999999925494","","177.59999999776483","","1","0","arrowleft","0","arrowright","[0.85,0.15,0.325,0.675]","","",""
"sailing-trial","412","1570649","0.0-11.0-371.0","","","","false","","","","","","","","","","null","","528.3000000007451","","3","0","null","null","arrowup","[0.85,0.15,0.325,0.675]","","",""
"sailing-trial","413","1573570","0.0-11.0-372.0","","","","false","","","","","","","","","","272.19999999925494","","265.69999999925494","","1","0","arrowleft","0","arrowright","[0.85,0.15,0.325,0.675]","","",""
"sailing-trial","414","1576149","0.0-11.0-373.0","","","","false","","","","","","","","","","null","","1475.3999999985099","","3","0","null","null","arrowup","[0.85,0.15,0.325,0.675]","","",""
"sailing-trial","415","1579007","0.0-11.0-374.0","","","","false","","","","","","","","","","108.69999999925494","","125.89999999850988","","2","0","arrowright","1","arrowleft","[0.85,0.15,0.325,0.675]","","",""
"sailing-trial","416","1580324","0.0-11.0-375.0","","","","false","","","","","","","","","","null","","188.19999999925494","","0","0","null","null","arrowup","[0.85,0.15,0.325,0.675]","","",""
"sailing-trial","417","1583475","0.0-11.0-376.0","","","","false","","","","","","","","","","571.3000000007451","","21.5","","3","1","arrowright","1","arrowright","[0.85,0.15,0.325,0.675]","","",""
"sailing-trial","418","1584767","0.0-11.0-377.0","","","","false","","","","","","","","","","null","","241.69999999925494","","2","0","null","null","arrowup","[0.85,0.15,0.325,0.675]","","",""
"sailing-trial","419","1587307","0.0-11.0-378.0","","","","false","","","","","","","","","","346.30000000074506","","28.799999997019768","","3","0","arrowright","1","arrowright","[0.85,0.15,0.325,0.675]","","",""
"sailing-trial","420","1590365","0.0-11.0-379.0","","","","false","","","","","","","","","","null","","1212.199999999255","","0","1","null","null","arrowup","[0.85,0.15,0.325,0.675]","","",""
"sailing-trial","421","1593581","0.0-11.0-380.0","","","","false","","","","","","","","","","678.8000000007451","","184.90000000223517","","1","0","arrowleft","0","arrowright","[0.85,0.15,0.325,0.675]","","",""
"sailing-trial","422","1596914","0.0-11.0-381.0","","","","false","","","","","","","","","","null","","1541.699999999255","","0","1","null","null","arrowup","[0.85,0.15,0.325,0.675]","","",""
"sailing-trial","423","1599625","0.0-11.0-382.0","","","","false","","","","","","","","","","148.19999999925494","","24.800000000745058","","0","1","arrowleft","0","arrowleft","[0.85,0.15,0.325,0.675]","","",""
"sailing-trial","424","1602608","0.0-11.0-383.0","","","","false","","","","","","","","","","null","","1432.7000000029802","","1","1","null","null","arrowup","[0.85,0.15,0.325,0.675]","","",""
"sailing-trial","425","1607431","0.0-11.0-384.0","","","","false","","","","","","","","","","1277.300000000745","","588.7000000029802","","0","1","arrowleft","0","arrowleft","[0.675,0.325,0.15,0.85]","","",""
"sailing-trial","426","1610173","0.0-11.0-385.0","","","","false","","","","","","","","","","null","","1597.4000000022352","","2","0","null","null","arrowup","[0.675,0.325,0.15,0.85]","","",""
"sailing-trial","427","1614094","0.0-11.0-386.0","","","","false","","","","","","","","","","330.69999999925494","","363.19999999925494","","1","1","arrowleft","0","arrowright","[0.675,0.325,0.15,0.85]","","",""
"sailing-trial","428","1616560","0.0-11.0-387.0","","","","false","","","","","","","","","","null","","447.9000000022352","","0","1","null","null","arrowup","[0.675,0.325,0.15,0.85]","","",""
"sailing-trial","429","1618965","0.0-11.0-388.0","","","","false","","","","","","","","","","194.5","","71.69999999925494","","0","0","arrowleft","0","arrowleft","[0.675,0.325,0.15,0.85]","","",""
"sailing-trial","430","1621031","0.0-11.0-389.0","","","","false","","","","","","","","","","null","","282.0999999977648","","0","1","null","null","arrowup","[0.675,0.325,0.15,0.85]","","",""
"sailing-trial","431","1624791","0.0-11.0-390.0","","","","false","","","","","","","","","","298.9000000022352","","223","","0","1","arrowleft","0","arrowleft","[0.675,0.325,0.15,0.85]","","",""
"sailing-trial","432","1628698","0.0-11.0-391.0","","","","false","","","","","","","","","","null","","1724.9000000022352","","3","1","null","null","arrowup","[0.675,0.325,0.15,0.85]","","",""
"sailing-trial","433","1631808","0.0-11.0-392.0","","","","false","","","","","","","","","","175.10000000149012","","132.29999999701977","","0","1","arrowleft","0","arrowleft","[0.675,0.325,0.15,0.85]","","",""
"sailing-trial","434","1633187","0.0-11.0-393.0","","","","false","","","","","","","","","","null","","208.80000000074506","","2","0","null","null","arrowup","[0.675,0.325,0.15,0.85]","","",""
"sailing-trial","435","1635640","0.0-11.0-394.0","","","","false","","","","","","","","","","280.20000000298023","","32.69999999925494","","0","0","arrowleft","0","arrowleft","[0.675,0.325,0.15,0.85]","","",""
"sailing-trial","436","1637415","0.0-11.0-395.0","","","","false","","","","","","","","","","null","","284.5","","1","0","null","null","arrowup","[0.675,0.325,0.15,0.85]","","",""
"sailing-trial","437","1642373","0.0-11.0-396.0","","","","false","","","","","","","","","","2014.4000000022352","","27.600000001490116","","0","1","arrowleft","0","arrowleft","[0.675,0.325,0.15,0.85]","","",""
"sailing-trial","438","1644206","0.0-11.0-397.0","","","","false","","","","","","","","","","null","","405.1000000014901","","1","0","null","null","arrowup","[0.675,0.325,0.15,0.85]","","",""
"sailing-trial","439","1648113","0.0-11.0-398.0","","","","false","","","","","","","","","","241.90000000223517","","326.19999999925494","","0","1","arrowleft","0","arrowleft","[0.675,0.325,0.15,0.85]","","",""
"sailing-trial","440","1651015","0.0-11.0-399.0","","","","false","","","","","","","","","","null","","747.5999999977648","","2","1","null","null","arrowup","[0.675,0.325,0.15,0.85]","","",""
"instructions","441","1663768","0.0-12.0","","","","","","","","","","12752.599999997765","","","","","","","","","","","","","","","","[{""page_index"":0,""viewing_time"":12752.5}]"
"survey-debrief","442","1748677","0.0-13.0","","","","","","","","","","84911.5","","","","","","","","","","","","","","{""difficulty"":""3"",""fun"":""5"",""clarity"":""5"",""strategy"":""No "",""feedback"":""No But the game was fun ""}","",""
