"trial_type","trial_index","time_elapsed","internal_node_id","value","metadata","success","timeout","failed_images","failed_audio","failed_video","browser_interaction","low_quality","rt","stimulus","response","button_pressed","island_rt","island_response","boat_rt","boat_response","boat","reward","island_key","island","boat_key","reward_probabilities","responses","num_errors","view_history"
"pavlovia","0","14","0.0-0.0","","","","","","","","","","","","","","","","","","","","","","","","","",""
"call-function","1","16","0.0-1.0","","{""task_version"":""sailing_part1_v1"",""task_condition"":""good"",""boats"":[""C"",""D"",""A"",""B""],""boats_demo"":[""E"",""H"",""F"",""G""],""islands"":[""B"",""A""],""subject_id"":""14592"",""age"":""8"",""gender"":""Male""}","","","","","","","","","","","","","","","","","","","","","","","",""
"preload","2","1689","0.0-2.0","","","true","false","[]","[]","[]","[{""event"":""fullscreenenter"",""trial"":3,""time"":11401}]","false","","","","","","","","","","","","","","","","",""
"fullscreen","3","12396","0.0-3.0","","","true","","","","","","","","","","","","","","","","","","","","","","",""
"audio-keyboard-response","4","14681","0.0-4.0-0.0","","","","","","","","","","1730.6666666666665","audio/beep_loop.wav"," ","","","","","","","","","","","","","",""
"audio-test","5","16195","0.0-4.0-1.0","","","","","","","","","","null","audio/turtle.mp3","","3","","","","","","","","","","","","",""
"audio-test","6","18611","0.0-4.0-2.0","","","","","","","","","","null","audio/shark.mp3","","2","","","","","","","","","","","","",""
"sailing-instructions","7","51924","0.0-5.0-0.0-0.0","","","","","","","","","","","","","","null","null","null","null","null","null","","","","","","",""
"sailing-trial","8","58753","0.0-5.0-0.0-1.0-0.0","","","","false","","","","","","","","","","5690.600000023842","","null","","null","null","arrowleft","0","null","null","","",""
"sailing-trial","9","61271","0.0-5.0-0.0-1.0-1.0","","","","false","","","","","","","","","","1383.7000000476837","","null","","null","null","arrowright","1","null","null","","",""
"sailing-trial","10","64735","0.0-5.0-0.0-1.0-2.0","","","","false","","","","","","","","","","2338.8000000715256","","null","","null","null","arrowleft","0","null","null","","",""
"sailing-instructions","11","109963","0.0-5.0-0.0-2.0","","","","","","","","","","","","","","null","null","null","null","0","null","","","","","","",""
"sailing-trial","12","116697","0.0-5.0-0.0-3.0-0.0","","","","false","","","","","","","","","","null","","3159.600000023842","","2","1","null","null","arrowleft","[1,1,1,1]","","",""
"sailing-trial","13","123255","0.0-5.0-0.0-3.0-1.0","","","","false","","","","","","","","","","null","","888.6000000238419","","3","1","null","null","arrowright","[1,1,1,1]","","",""
"sailing-trial","14","127900","0.0-5.0-0.0-3.0-2.0","","","","false","","","","","","","","","","null","","1686.2000000476837","","3","0","null","null","arrowright","[0,0,0,0]","","",""
"sailing-instructions","15","135587","0.0-5.0-0.0-4.0","","","","","","","","","","","","","","null","null","null","null","null","null","","","","","","",""
"sailing-comprehension","16","165527","0.0-5.0-0.0-5.0","","","","","","","","","","23805.400000095367","","","","","","","","","","","","","","[""true"",""false"",""true"",""true""]","2",""
"sailing-instructions","17","194890","0.0-5.0-0.1-0.1","","","","","","","","","","","","","","null","null","null","null","null","null","","","","","","",""
"sailing-trial","18","196922","0.0-5.0-0.1-1.1-0.1","","","","false","","","","","","","","","","922.1000000238419","","null","","null","null","arrowleft","0","null","null","","",""
"sailing-trial","19","199035","0.0-5.0-0.1-1.1-1.1","","","","false","","","","","","","","","","1003","","null","","null","null","arrowright","1","null","null","","",""
"sailing-trial","20","201838","0.0-5.0-0.1-1.1-2.1","","","","false","","","","","","","","","","1684.7000000476837","","null","","null","null","arrowleft","0","null","null","","",""
"sailing-instructions","21","240426","0.0-5.0-0.1-2.1","","","","","","","","","","","","","","null","null","null","null","0","null","","","","","","",""
"sailing-trial","22","246019","0.0-5.0-0.1-3.1-0.1","","","","false","","","","","","","","","","null","","1860.6000000238419","","2","1","null","null","arrowleft","[1,1,1,1]","","",""
"sailing-trial","23","249849","0.0-5.0-0.1-3.1-1.1","","","","false","","","","","","","","","","null","","1421.3999999761581","","3","1","null","null","arrowright","[1,1,1,1]","","",""
"sailing-trial","24","255034","0.0-5.0-0.1-3.1-2.1","","","","false","","","","","","","","","","null","","2275.899999976158","","2","0","null","null","arrowleft","[0,0,0,0]","","",""
"sailing-instructions","25","262116","0.0-5.0-0.1-4.1","","","","","","","","","","","","","","null","null","null","null","null","null","","","","","","",""
"sailing-comprehension","26","307973","0.0-5.0-0.1-5.1","","","","","","","","","","31877.199999928474","","","","","","","","","","","","","","[""true"",""false"",""true"",""true""]","2",""
"sailing-instructions","27","372210","0.0-6.0-0.0-0.0","","","","","","","","","","","","","","null","null","null","null","null","null","","","","","","",""
"sailing-comprehension","28","396525","0.0-6.0-0.0-1.0","","","","","","","","","","21557.899999976158","","","","","","","","","","","","","","[""true"",""false"",""true""]","0",""
"sailing-instructions","29","411585","0.0-7.0-0.0-0.0","","","","","","","","","","","","","","null","null","null","null","null","null","","","","","","",""
"sailing-trial","30","416894","0.0-7.0-0.0-1.0-0.0","","","","false","","","","","","","","","","null","","2746.5","","0","1","null","null","arrowup","[0.2,0.8,0.2,0.8]","","",""
"sailing-trial","31","422522","0.0-7.0-0.0-1.0-1.0","","","","false","","","","","","","","","","null","","2601.7000000476837","","1","1","null","null","arrowup","[0.2,0.8,0.2,0.8]","","",""
"sailing-trial","32","425919","0.0-7.0-0.0-1.0-2.0","","","","false","","","","","","","","","","null","","995.1000000238419","","2","0","null","null","arrowup","[0.2,0.8,0.2,0.8]","","",""
"sailing-trial","33","428767","0.0-7.0-0.0-1.0-3.0","","","","false","","","","","","","","","","null","","804.5","","3","1","null","null","arrowup","[0.2,0.8,0.2,0.8]","","",""
"sailing-comprehension","34","437039","0.0-7.0-0.0-2.0","","","","","","","","","","6272.5","","","","","","","","","","","","","","[""false""]","0",""
"sailing-instructions","35","448938","0.0-8.0-0.0-0.0","","","","","","","","","","","","","","null","null","null","null","null","null","","","","","","",""
"sailing-comprehension","36","455200","0.0-8.0-0.0-1.0","","","","","","","","","","4830.300000071526","","","","","","","","","","","","","","[""false""]","1",""
"sailing-instructions","37","465385","0.0-8.0-0.1-0.1","","","","","","","","","","","","","","null","null","null","null","null","null","","","","","","",""
"sailing-comprehension","38","475276","0.0-8.0-0.1-1.1","","","","","","","","","","3102.7000000476837","","","","","","","","","","","","","","[""true""]","0",""
"sailing-instructions","39","496577","0.0-9.0-0.0-0.0","","","","","","","","","","","","","","null","null","null","null","null","null","","","","","","",""
"sailing-trial","40","501777","0.0-9.0-0.0-1.0-0.0","","","","false","","","","","","","","","","1284.5","","163.79999995231628","","0","0","arrowleft","0","arrowleft","[0.2,0.8,0.2,0.8]","","",""
"sailing-trial","41","506912","0.0-9.0-0.0-1.0-1.0","","","","false","","","","","","","","","","1673.2999999523163","","105.30000007152557","","1","1","arrowleft","0","arrowright","[0.2,0.8,0.2,0.8]","","",""
"sailing-trial","42","511589","0.0-9.0-0.0-1.0-2.0","","","","false","","","","","","","","","","null","","2299","","0","0","null","null","arrowup","[0.2,0.8,0.2,0.8]","","",""
"sailing-trial","43","516923","0.0-9.0-0.0-1.0-3.0","","","","false","","","","","","","","","","967.3000000715256","","328","","3","1","arrowright","1","arrowright","[0.2,0.8,0.2,0.8]","","",""
"sailing-trial","44","520995","0.0-9.0-0.0-1.0-4.0","","","","false","","","","","","","","","","null","","1524.7999999523163","","3","1","null","null","arrowup","[0.2,0.8,0.2,0.8]","","",""
"sailing-trial","45","526715","0.0-9.0-0.0-1.0-5.0","","","","false","","","","","","","","","","3102.600000023842","","120.5","","2","0","arrowright","1","arrowleft","[0.2,0.8,0.2,0.8]","","",""
"sailing-instructions","46","552633","0.0-10.0","","","","","","","","","","","","","","null","null","null","null","null","null","","","","","","",""
"sailing-trial","47","557877","0.0-11.0-0.0","","","","false","","","","","","","","","","1490.3999999761581","","5","","0","0","arrowleft","0","arrowleft","[0.15,0.85,0.325,0.675]","","",""
"sailing-trial","48","562577","0.0-11.0-1.0","","","","false","","","","","","","","","","null","","1654.6000000238419","","0","0","null","null","arrowup","[0.15,0.85,0.325,0.675]","","",""
"sailing-trial","49","568246","0.0-11.0-2.0","","","","false","","","","","","","","","","1436.2000000476837","","330.6999999284744","","0","0","arrowleft","0","arrowleft","[0.15,0.85,0.325,0.675]","","",""
"sailing-trial","50","572574","0.0-11.0-3.0","","","","false","","","","","","","","","","null","","1318.1999999284744","","2","0","null","null","arrowup","[0.15,0.85,0.325,0.675]","","",""
"sailing-trial","51","578241","0.0-11.0-4.0","","","","false","","","","","","","","","","1604.6000000238419","","24.5","","0","0","arrowleft","0","arrowleft","[0.15,0.85,0.325,0.675]","","",""
"sailing-trial","52","583030","0.0-11.0-5.0","","","","false","","","","","","","","","","null","","2391.2000000476837","","2","1","null","null","arrowup","[0.15,0.85,0.325,0.675]","","",""
"sailing-trial","53","590528","0.0-11.0-6.0","","","","false","","","","","","","","","","3099.7000000476837","","232.70000004768372","","1","1","arrowleft","0","arrowright","[0.15,0.85,0.325,0.675]","","",""
"sailing-trial","54","594013","0.0-11.0-7.0","","","","false","","","","","","","","","","null","","1161.6000000238419","","1","1","null","null","arrowup","[0.15,0.85,0.325,0.675]","","",""
"sailing-trial","55","597663","0.0-11.0-8.0","","","","false","","","","","","","","","","734","","17.299999952316284","","1","1","arrowleft","0","arrowright","[0.15,0.85,0.325,0.675]","","",""
"sailing-trial","56","601236","0.0-11.0-9.0","","","","false","","","","","","","","","","null","","1297","","3","1","null","null","arrowup","[0.15,0.85,0.325,0.675]","","",""
"sailing-trial","57","605997","0.0-11.0-10.0","","","","false","","","","","","","","","","1413.8999999761581","","105.69999992847443","","1","1","arrowleft","0","arrowright","[0.15,0.85,0.325,0.675]","","",""
"sailing-trial","58","609809","0.0-11.0-11.0","","","","false","","","","","","","","","","null","","1125.9000000953674","","2","0","null","null","arrowup","[0.15,0.85,0.325,0.675]","","",""
"sailing-trial","59","615986","0.0-11.0-12.0","","","","false","","","","","","","","","","809","","614.9000000953674","","3","1","arrowright","1","arrowright","[0.15,0.85,0.325,0.675]","","",""
"sailing-trial","60","619927","0.0-11.0-13.0","","","","false","","","","","","","","","","null","","992.2000000476837","","0","1","null","null","arrowup","[0.15,0.85,0.325,0.675]","","",""
"sailing-trial","61","623437","0.0-11.0-14.0","","","","false","","","","","","","","","","857.8000000715256","","554.7000000476837","","3","0","arrowright","1","arrowright","[0.15,0.85,0.325,0.675]","","",""
"sailing-trial","62","627521","0.0-11.0-15.0","","","","false","","","","","","","","","","null","","1075.7999999523163","","0","0","null","null","arrowup","[0.15,0.85,0.325,0.675]","","",""
"sailing-trial","63","631644","0.0-11.0-16.0","","","","false","","","","","","","","","","659.2000000476837","","229.70000004768372","","3","1","arrowright","1","arrowright","[0.15,0.85,0.325,0.675]","","",""
"sailing-trial","64","635745","0.0-11.0-17.0","","","","false","","","","","","","","","","null","","1042.7000000476837","","3","0","null","null","arrowup","[0.15,0.85,0.325,0.675]","","",""
"sailing-trial","65","641208","0.0-11.0-18.0","","","","false","","","","","","","","","","1143.6000000238419","","457.5","","0","0","arrowleft","0","arrowleft","[0.325,0.675,0.15,0.85]","","",""
"sailing-trial","66","645179","0.0-11.0-19.0","","","","false","","","","","","","","","","null","","1516","","1","1","null","null","arrowup","[0.325,0.675,0.15,0.85]","","",""
"sailing-trial","67","650892","0.0-11.0-20.0","","","","false","","","","","","","","","","1330.7999999523163","","347.39999997615814","","2","0","arrowright","1","arrowleft","[0.325,0.675,0.15,0.85]","","",""
"sailing-trial","68","653684","0.0-11.0-21.0","","","","false","","","","","","","","","","null","","1428.8999999761581","","1","0","null","null","arrowup","[0.325,0.675,0.15,0.85]","","",""
"sailing-trial","69","658447","0.0-11.0-22.0","","","","false","","","","","","","","","","725.7999999523163","","341.8000000715256","","2","1","arrowright","1","arrowleft","[0.325,0.675,0.15,0.85]","","",""
"sailing-trial","70","661853","0.0-11.0-23.0","","","","false","","","","","","","","","","null","","1200.1999999284744","","2","0","null","null","arrowup","[0.325,0.675,0.15,0.85]","","",""
"sailing-trial","71","666913","0.0-11.0-24.0","","","","false","","","","","","","","","","599.1000000238419","","381.60000002384186","","2","0","arrowright","1","arrowleft","[0.325,0.675,0.15,0.85]","","",""
"sailing-trial","72","670501","0.0-11.0-25.0","","","","false","","","","","","","","","","null","","1393.2999999523163","","3","1","null","null","arrowup","[0.325,0.675,0.15,0.85]","","",""
"sailing-trial","73","675709","0.0-11.0-26.0","","","","false","","","","","","","","","","590","","485.3000000715256","","1","0","arrowleft","0","arrowright","[0.325,0.675,0.15,0.85]","","",""
"sailing-trial","74","679478","0.0-11.0-27.0","","","","false","","","","","","","","","","null","","1985.1000000238419","","2","0","null","null","arrowup","[0.325,0.675,0.15,0.85]","","",""
"sailing-trial","75","684146","0.0-11.0-28.0","","","","false","","","","","","","","","","673.1000000238419","","764.2999999523163","","3","1","arrowright","1","arrowright","[0.325,0.675,0.15,0.85]","","",""
"sailing-trial","76","687369","0.0-11.0-29.0","","","","false","","","","","","","","","","null","","1704.1999999284744","","0","0","null","null","arrowup","[0.325,0.675,0.15,0.85]","","",""
"sailing-trial","77","690566","0.0-11.0-30.0","","","","false","","","","","","","","","","745.7999999523163","","317.7999999523163","","1","0","arrowleft","0","arrowright","[0.325,0.675,0.15,0.85]","","",""
"sailing-trial","78","694710","0.0-11.0-31.0","","","","false","","","","","","","","","","null","","1120.1999999284744","","2","0","null","null","arrowup","[0.325,0.675,0.15,0.85]","","",""
"sailing-trial","79","699068","0.0-11.0-32.0","","","","false","","","","","","","","","","644.4000000953674","","812.7999999523163","","0","1","arrowleft","0","arrowleft","[0.325,0.675,0.15,0.85]","","",""
"sailing-trial","80","701885","0.0-11.0-33.0","","","","false","","","","","","","","","","null","","1249.5","","3","0","null","null","arrowup","[0.325,0.675,0.15,0.85]","","",""
"sailing-trial","81","706412","0.0-11.0-34.0","","","","false","","","","","","","","","","707.6000000238419","","309.7999999523163","","3","1","arrowright","1","arrowright","[0.85,0.15,0.675,0.325]","","",""
"sailing-trial","82","710477","0.0-11.0-35.0","","","","false","","","","","","","","","","null","","1050.5","","1","0","null","null","arrowup","[0.85,0.15,0.675,0.325]","","",""
"sailing-trial","83","715716","0.0-11.0-36.0","","","","false","","","","","","","","","","662.6000000238419","","556.1000000238419","","1","0","arrowleft","0","arrowright","[0.85,0.15,0.675,0.325]","","",""
"sailing-trial","84","718875","0.0-11.0-37.0","","","","false","","","","","","","","","","null","","1117.1999999284744","","3","0","null","null","arrowup","[0.85,0.15,0.675,0.325]","","",""
"sailing-trial","85","723808","0.0-11.0-38.0","","","","false","","","","","","","","","","648.6999999284744","","245.89999997615814","","2","0","arrowright","1","arrowleft","[0.85,0.15,0.675,0.325]","","",""
"sailing-trial","86","729853","0.0-11.0-39.0","","","","false","","","","","","","","","","null","","3595.7999999523163","","2","1","null","null","arrowup","[0.85,0.15,0.675,0.325]","","",""
"sailing-trial","87","738997","0.0-11.0-40.0","","","","false","","","","","","","","","","783.2000000476837","","227.5","","2","1","arrowright","1","arrowleft","[0.85,0.15,0.675,0.325]","","",""
"sailing-trial","88","742916","0.0-11.0-41.0","","","","false","","","","","","","","","","null","","1854.8000000715256","","2","1","null","null","arrowup","[0.85,0.15,0.675,0.325]","","",""
"sailing-trial","89","748061","0.0-11.0-42.0","","","","false","","","","","","","","","","662.6000000238419","","475.2000000476837","","0","0","arrowleft","0","arrowleft","[0.85,0.15,0.675,0.325]","","",""
"sailing-trial","90","750709","0.0-11.0-43.0","","","","false","","","","","","","","","","null","","1184.1000000238419","","3","0","null","null","arrowup","[0.85,0.15,0.675,0.325]","","",""
"sailing-trial","91","755661","0.0-11.0-44.0","","","","false","","","","","","","","","","537","","424","","1","0","arrowleft","0","arrowright","[0.85,0.15,0.675,0.325]","","",""
"sailing-trial","92","759145","0.0-11.0-45.0","","","","false","","","","","","","","","","null","","902","","1","0","null","null","arrowup","[0.85,0.15,0.675,0.325]","","",""
"sailing-trial","93","763686","0.0-11.0-46.0","","","","false","","","","","","","","","","660.3999999761581","","583.5","","2","1","arrowright","1","arrowleft","[0.85,0.15,0.675,0.325]","","",""
"sailing-trial","94","769348","0.0-11.0-47.0","","","","false","","","","","","","","","","null","","1163.2000000476837","","2","1","null","null","arrowup","[0.85,0.15,0.675,0.325]","","",""
"sailing-trial","95","773811","0.0-11.0-48.0","","","","false","","","","","","","","","","676.3999999761581","","113.39999997615814","","3","0","arrowright","1","arrowright","[0.85,0.15,0.675,0.325]","","",""
"sailing-trial","96","777513","0.0-11.0-49.0","","","","false","","","","","","","","","","null","","1007","","2","0","null","null","arrowup","[0.85,0.15,0.675,0.325]","","",""
"sailing-trial","97","782299","0.0-11.0-50.0","","","","false","","","","","","","","","","604.7999999523163","","130","","0","1","arrowleft","0","arrowleft","[0.675,0.325,0.85,0.15]","","",""
"sailing-trial","98","786050","0.0-11.0-51.0","","","","false","","","","","","","","","","null","","1312.8999999761581","","0","1","null","null","arrowup","[0.675,0.325,0.85,0.15]","","",""
"sailing-trial","99","790280","0.0-11.0-52.0","","","","false","","","","","","","","","","760.2000000476837","","527","","2","1","arrowright","1","arrowleft","[0.675,0.325,0.85,0.15]","","",""
"sailing-trial","100","794487","0.0-11.0-53.0","","","","false","","","","","","","","","","null","","1562.6999999284744","","0","1","null","null","arrowup","[0.675,0.325,0.85,0.15]","","",""
"sailing-trial","101","798293","0.0-11.0-54.0","","","","false","","","","","","","","","","1402.8999999761581","","328.2000000476837","","3","0","arrowright","1","arrowright","[0.675,0.325,0.85,0.15]","","",""
"sailing-trial","102","801614","0.0-11.0-55.0","","","","false","","","","","","","","","","null","","1229.3999999761581","","2","1","null","null","arrowup","[0.675,0.325,0.85,0.15]","","",""
"sailing-trial","103","805481","0.0-11.0-56.0","","","","false","","","","","","","","","","690.1000000238419","","34.700000047683716","","0","1","arrowleft","0","arrowleft","[0.675,0.325,0.85,0.15]","","",""
"sailing-trial","104","808384","0.0-11.0-57.0","","","","false","","","","","","","","","","null","","1358.1999999284744","","1","0","null","null","arrowup","[0.675,0.325,0.85,0.15]","","",""
"sailing-trial","105","813986","0.0-11.0-58.0","","","","false","","","","","","","","","","1151.6000000238419","","406.60000002384186","","1","0","arrowleft","0","arrowright","[0.675,0.325,0.85,0.15]","","",""
"sailing-trial","106","816843","0.0-11.0-59.0","","","","false","","","","","","","","","","null","","1419.3999999761581","","1","0","null","null","arrowup","[0.675,0.325,0.85,0.15]","","",""
"sailing-trial","107","821585","0.0-11.0-60.0","","","","false","","","","","","","","","","976.2999999523163","","392.2000000476837","","2","1","arrowright","1","arrowleft","[0.675,0.325,0.85,0.15]","","",""
"sailing-trial","108","825064","0.0-11.0-61.0","","","","false","","","","","","","","","","null","","1078.5","","0","1","null","null","arrowup","[0.675,0.325,0.85,0.15]","","",""
"sailing-trial","109","829781","0.0-11.0-62.0","","","","false","","","","","","","","","","944","","817.1999999284744","","3","1","arrowright","1","arrowright","[0.675,0.325,0.85,0.15]","","",""
"sailing-trial","110","833265","0.0-11.0-63.0","","","","false","","","","","","","","","","null","","1424.6000000238419","","2","1","null","null","arrowup","[0.675,0.325,0.85,0.15]","","",""
"sailing-trial","111","837207","0.0-11.0-64.0","","","","false","","","","","","","","","","1149.8999999761581","","422.40000009536743","","0","0","arrowleft","0","arrowleft","[0.675,0.325,0.85,0.15]","","",""
"sailing-trial","112","839637","0.0-11.0-65.0","","","","false","","","","","","","","","","null","","1091","","1","0","null","null","arrowup","[0.675,0.325,0.85,0.15]","","",""
"sailing-trial","113","844086","0.0-11.0-66.0","","","","false","","","","","","","","","","911.1000000238419","","484.8000000715256","","1","1","arrowleft","0","arrowright","[0.675,0.325,0.85,0.15]","","",""
"sailing-trial","114","846886","0.0-11.0-67.0","","","","false","","","","","","","","","","null","","1439.6000000238419","","0","0","null","null","arrowup","[0.675,0.325,0.85,0.15]","","",""
"sailing-trial","115","852807","0.0-11.0-68.0","","","","false","","","","","","","","","","1990","","810.1000000238419","","2","0","arrowright","1","arrowleft","[0.325,0.675,0.15,0.85]","","",""
"sailing-trial","116","856098","0.0-11.0-69.0","","","","false","","","","","","","","","","null","","1405.3999999761581","","3","0","null","null","arrowup","[0.325,0.675,0.15,0.85]","","",""
"sailing-trial","117","864632","0.0-11.0-70.0","","","","false","","","","","","","","","","699.6999999284744","","50.39999997615814","","3","1","arrowright","1","arrowright","[0.325,0.675,0.15,0.85]","","",""
"sailing-trial","118","868587","0.0-11.0-71.0","","","","false","","","","","","","","","","null","","1048.4000000953674","","3","1","null","null","arrowup","[0.325,0.675,0.15,0.85]","","",""
"sailing-trial","119","873632","0.0-11.0-72.0","","","","false","","","","","","","","","","578.5999999046326","","60.5","","0","1","arrowleft","0","arrowleft","[0.325,0.675,0.15,0.85]","","",""
"sailing-trial","120","878054","0.0-11.0-73.0","","","","false","","","","","","","","","","null","","2431.3000000715256","","3","1","null","null","arrowup","[0.325,0.675,0.15,0.85]","","",""
"sailing-trial","121","883371","0.0-11.0-74.0","","","","false","","","","","","","","","","1038.7000000476837","","252.70000004768372","","2","0","arrowright","1","arrowleft","[0.325,0.675,0.15,0.85]","","",""
"sailing-trial","122","887770","0.0-11.0-75.0","","","","false","","","","","","","","","","null","","1389.8000000715256","","2","0","null","null","arrowup","[0.325,0.675,0.15,0.85]","","",""
"sailing-trial","123","894131","0.0-11.0-76.0","","","","false","","","","","","","","","","773","","500.89999997615814","","3","1","arrowright","1","arrowright","[0.325,0.675,0.15,0.85]","","",""
"sailing-trial","124","899883","0.0-11.0-77.0","","","","false","","","","","","","","","","null","","3710","","3","1","null","null","arrowup","[0.325,0.675,0.15,0.85]","","",""
"sailing-trial","125","907681","0.0-11.0-78.0","","","","false","","","","","","","","","","3902.2999999523163","","659.3999999761581","","0","0","arrowleft","0","arrowleft","[0.325,0.675,0.15,0.85]","","",""
"sailing-trial","126","911466","0.0-11.0-79.0","","","","false","","","","","","","","","","null","","1434.8000000715256","","1","1","null","null","arrowup","[0.325,0.675,0.15,0.85]","","",""
"sailing-trial","127","917981","0.0-11.0-80.0","","","","false","","","","","","","","","","2090.2000000476837","","368.2000000476837","","1","0","arrowleft","0","arrowright","[0.325,0.675,0.15,0.85]","","",""
"sailing-trial","128","921967","0.0-11.0-81.0","","","","false","","","","","","","","","","null","","981.7999999523163","","2","0","null","null","arrowup","[0.325,0.675,0.15,0.85]","","",""
"sailing-trial","129","926445","0.0-11.0-82.0","","","","false","","","","","","","","","","1148.5","","336.5","","2","0","arrowright","1","arrowleft","[0.325,0.675,0.15,0.85]","","",""
"sailing-trial","130","929316","0.0-11.0-83.0","","","","false","","","","","","","","","","null","","1144","","2","0","null","null","arrowup","[0.325,0.675,0.15,0.85]","","",""
"sailing-trial","131","934584","0.0-11.0-84.0","","","","false","","","","","","","","","","751.5","","116.09999990463257","","3","1","arrowright","1","arrowright","[0.15,0.85,0.325,0.675]","","",""
"sailing-trial","132","937480","0.0-11.0-85.0","","","","false","","","","","","","","","","null","","1362.4000000953674","","1","0","null","null","arrowup","[0.15,0.85,0.325,0.675]","","",""
"sailing-trial","133","942398","0.0-11.0-86.0","","","","false","","","","","","","","","","560.7999999523163","","342.60000002384186","","0","0","arrowleft","0","arrowleft","[0.15,0.85,0.325,0.675]","","",""
"sailing-trial","134","946034","0.0-11.0-87.0","","","","false","","","","","","","","","","null","","1208.0999999046326","","3","1","null","null","arrowup","[0.15,0.85,0.325,0.675]","","",""
"sailing-trial","135","950356","0.0-11.0-88.0","","","","false","","","","","","","","","","1129.1999999284744","","273.39999997615814","","1","1","arrowleft","0","arrowright","[0.15,0.85,0.325,0.675]","","",""
"sailing-trial","136","954192","0.0-11.0-89.0","","","","false","","","","","","","","","","null","","1159.5","","2","1","null","null","arrowup","[0.15,0.85,0.325,0.675]","","",""
"sailing-trial","137","960173","0.0-11.0-90.0","","","","false","","","","","","","","","","870.9000000953674","","578","","2","1","arrowright","1","arrowleft","[0.15,0.85,0.325,0.675]","","",""
"sailing-trial","138","963951","0.0-11.0-91.0","","","","false","","","","","","","","","","null","","1639.4000000953674","","1","1","null","null","arrowup","[0.15,0.85,0.325,0.675]","","",""
"sailing-trial","139","968998","0.0-11.0-92.0","","","","false","","","","","","","","","","1936.2000000476837","","347.2999999523163","","0","0","arrowleft","0","arrowleft","[0.15,0.85,0.325,0.675]","","",""
"sailing-trial","140","972417","0.0-11.0-93.0","","","","false","","","","","","","","","","null","","1576.6999999284744","","0","0","null","null","arrowup","[0.15,0.85,0.325,0.675]","","",""
"sailing-trial","141","976615","0.0-11.0-94.0","","","","false","","","","","","","","","","1027.7000000476837","","536.8999999761581","","1","0","arrowleft","0","arrowright","[0.15,0.85,0.325,0.675]","","",""
"sailing-trial","142","980782","0.0-11.0-95.0","","","","false","","","","","","","","","","null","","1517.1000000238419","","0","0","null","null","arrowup","[0.15,0.85,0.325,0.675]","","",""
"sailing-trial","143","984633","0.0-11.0-96.0","","","","false","","","","","","","","","","1121.8999999761581","","372","","2","0","arrowright","1","arrowleft","[0.15,0.85,0.325,0.675]","","",""
"sailing-trial","144","988390","0.0-11.0-97.0","","","","false","","","","","","","","","","null","","1251.1000000238419","","1","1","null","null","arrowup","[0.15,0.85,0.325,0.675]","","",""
"sailing-trial","145","993456","0.0-11.0-98.0","","","","false","","","","","","","","","","784.7999999523163","","23.799999952316284","","3","1","arrowright","1","arrowright","[0.15,0.85,0.325,0.675]","","",""
"sailing-trial","146","996474","0.0-11.0-99.0","","","","false","","","","","","","","","","null","","1190.3999999761581","","1","1","null","null","arrowup","[0.15,0.85,0.325,0.675]","","",""
"sailing-trial","147","1000001","0.0-11.0-100.0","","","","false","","","","","","","","","","520.3999999761581","","3.3000000715255737","","0","0","arrowleft","0","arrowleft","[0.15,0.85,0.325,0.675]","","",""
"sailing-trial","148","1005217","0.0-11.0-101.0","","","","false","","","","","","","","","","null","","3648","","2","0","null","null","arrowup","[0.15,0.85,0.325,0.675]","","",""
"sailing-trial","149","1012565","0.0-11.0-102.0","","","","false","","","","","","","","","","3519","","629.3999999761581","","1","0","arrowleft","0","arrowright","[0.85,0.15,0.675,0.325]","","",""
"sailing-trial","150","1015894","0.0-11.0-103.0","","","","false","","","","","","","","","","null","","1193.2000000476837","","1","0","null","null","arrowup","[0.85,0.15,0.675,0.325]","","",""
"sailing-trial","151","1019973","0.0-11.0-104.0","","","","false","","","","","","","","","","939.7999999523163","","393.5","","2","0","arrowright","1","arrowleft","[0.85,0.15,0.675,0.325]","","",""
"sailing-trial","152","1023713","0.0-11.0-105.0","","","","false","","","","","","","","","","null","","1205.6999999284744","","1","0","null","null","arrowup","[0.85,0.15,0.675,0.325]","","",""
"sailing-trial","153","1029432","0.0-11.0-106.0","","","","false","","","","","","","","","","1383.6999999284744","","310.3000000715256","","3","0","arrowright","1","arrowright","[0.85,0.15,0.675,0.325]","","",""
"sailing-trial","154","1034005","0.0-11.0-107.0","","","","false","","","","","","","","","","null","","1545.3999999761581","","3","0","null","null","arrowup","[0.85,0.15,0.675,0.325]","","",""
"sailing-trial","155","1039952","0.0-11.0-108.0","","","","false","","","","","","","","","","1441.6000000238419","","284.3000000715256","","0","1","arrowleft","0","arrowleft","[0.85,0.15,0.675,0.325]","","",""
"sailing-trial","156","1044621","0.0-11.0-109.0","","","","false","","","","","","","","","","null","","1845.7999999523163","","2","1","null","null","arrowup","[0.85,0.15,0.675,0.325]","","",""
"sailing-trial","157","1048949","0.0-11.0-110.0","","","","false","","","","","","","","","","819.0999999046326","","455.7000000476837","","1","0","arrowleft","0","arrowright","[0.85,0.15,0.675,0.325]","","",""
"sailing-trial","158","1052667","0.0-11.0-111.0","","","","false","","","","","","","","","","null","","1451.2999999523163","","1","1","null","null","arrowup","[0.85,0.15,0.675,0.325]","","",""
"sailing-trial","159","1059733","0.0-11.0-112.0","","","","false","","","","","","","","","","692.7000000476837","","686.5","","2","1","arrowright","1","arrowleft","[0.85,0.15,0.675,0.325]","","",""
"sailing-trial","160","1063747","0.0-11.0-113.0","","","","false","","","","","","","","","","null","","2278.899999976158","","2","0","null","null","arrowup","[0.85,0.15,0.675,0.325]","","",""
"sailing-trial","161","1067581","0.0-11.0-114.0","","","","false","","","","","","","","","","828.9000000953674","","279.09999990463257","","3","0","arrowright","1","arrowright","[0.85,0.15,0.675,0.325]","","",""
"sailing-trial","162","1070522","0.0-11.0-115.0","","","","false","","","","","","","","","","null","","1045","","2","1","null","null","arrowup","[0.85,0.15,0.675,0.325]","","",""
"sailing-trial","163","1074305","0.0-11.0-116.0","","","","false","","","","","","","","","","566.3999999761581","","312","","0","0","arrowleft","0","arrowleft","[0.85,0.15,0.675,0.325]","","",""
"sailing-trial","164","1077754","0.0-11.0-117.0","","","","false","","","","","","","","","","null","","951","","0","1","null","null","arrowup","[0.85,0.15,0.675,0.325]","","",""
"sailing-trial","165","1083566","0.0-11.0-118.0","","","","false","","","","","","","","","","1411.1000000238419","","381.39999997615814","","1","0","arrowleft","0","arrowright","[0.85,0.15,0.675,0.325]","","",""
"sailing-trial","166","1087133","0.0-11.0-119.0","","","","false","","","","","","","","","","null","","1264.2000000476837","","0","1","null","null","arrowup","[0.85,0.15,0.675,0.325]","","",""
"sailing-trial","167","1092733","0.0-11.0-120.0","","","","false","","","","","","","","","","1313.8000000715256","","370.8000000715256","","2","0","arrowright","1","arrowleft","[0.85,0.15,0.675,0.325]","","",""
"sailing-trial","168","1097269","0.0-11.0-121.0","","","","false","","","","","","","","","","null","","2378.899999976158","","2","1","null","null","arrowup","[0.85,0.15,0.675,0.325]","","",""
"sailing-trial","169","1102071","0.0-11.0-122.0","","","","false","","","","","","","","","","689.5","","922.7999999523163","","3","1","arrowright","1","arrowright","[0.85,0.15,0.675,0.325]","","",""
"sailing-trial","170","1104939","0.0-11.0-123.0","","","","false","","","","","","","","","","null","","970.7999999523163","","2","1","null","null","arrowup","[0.85,0.15,0.675,0.325]","","",""
"sailing-trial","171","1112802","0.0-11.0-124.0","","","","false","","","","","","","","","","2450","","624.0999999046326","","0","1","arrowleft","0","arrowleft","[0.675,0.325,0.85,0.15]","","",""
"sailing-trial","172","1117173","0.0-11.0-125.0","","","","false","","","","","","","","","","null","","1956.8000000715256","","1","0","null","null","arrowup","[0.675,0.325,0.85,0.15]","","",""
"sailing-trial","173","1123602","0.0-11.0-126.0","","","","false","","","","","","","","","","1155.3999999761581","","874.5","","0","1","arrowleft","0","arrowleft","[0.675,0.325,0.85,0.15]","","",""
"sailing-trial","174","1129634","0.0-11.0-127.0","","","","false","","","","","","","","","","null","","3317.899999976158","","1","1","null","null","arrowup","[0.675,0.325,0.85,0.15]","","",""
"sailing-trial","175","1135294","0.0-11.0-128.0","","","","false","","","","","","","","","","1056.2999999523163","","1038.7000000476837","","1","0","arrowleft","0","arrowright","[0.675,0.325,0.85,0.15]","","",""
"sailing-trial","176","1138332","0.0-11.0-129.0","","","","false","","","","","","","","","","null","","1129.7999999523163","","1","0","null","null","arrowup","[0.675,0.325,0.85,0.15]","","",""
"sailing-trial","177","1143449","0.0-11.0-130.0","","","","false","","","","","","","","","","732.5","","360.2000000476837","","2","0","arrowright","1","arrowleft","[0.675,0.325,0.85,0.15]","","",""
"sailing-trial","178","1146410","0.0-11.0-131.0","","","","false","","","","","","","","","","null","","1025.5","","3","0","null","null","arrowup","[0.675,0.325,0.85,0.15]","","",""
"sailing-trial","179","1153869","0.0-11.0-132.0","","","","false","","","","","","","","","","1399.6000000238419","","1006.1000000238419","","2","1","arrowright","1","arrowleft","[0.675,0.325,0.85,0.15]","","",""
"sailing-trial","180","1157245","0.0-11.0-133.0","","","","false","","","","","","","","","","null","","1191","","2","1","null","null","arrowup","[0.675,0.325,0.85,0.15]","","",""
"sailing-trial","181","1161938","0.0-11.0-134.0","","","","false","","","","","","","","","","1012.1000000238419","","538.2999999523163","","0","1","arrowleft","0","arrowleft","[0.675,0.325,0.85,0.15]","","",""
"sailing-trial","182","1166119","0.0-11.0-135.0","","","","false","","","","","","","","","","null","","983.2000000476837","","2","1","null","null","arrowup","[0.675,0.325,0.85,0.15]","","",""
"sailing-trial","183","1172372","0.0-11.0-136.0","","","","false","","","","","","","","","","688.6000000238419","","401.1999999284744","","1","1","arrowleft","0","arrowright","[0.675,0.325,0.85,0.15]","","",""
"sailing-trial","184","1175316","0.0-11.0-137.0","","","","false","","","","","","","","","","null","","1316.8999999761581","","0","0","null","null","arrowup","[0.675,0.325,0.85,0.15]","","",""
"sailing-trial","185","1179487","0.0-11.0-138.0","","","","false","","","","","","","","","","770.1000000238419","","474.59999990463257","","2","1","arrowright","1","arrowleft","[0.675,0.325,0.85,0.15]","","",""
"sailing-trial","186","1182920","0.0-11.0-139.0","","","","false","","","","","","","","","","null","","1056.6000000238419","","0","1","null","null","arrowup","[0.675,0.325,0.85,0.15]","","",""
"sailing-trial","187","1187375","0.0-11.0-140.0","","","","false","","","","","","","","","","1079.1000000238419","","62.60000002384186","","3","1","arrowright","1","arrowright","[0.15,0.85,0.325,0.675]","","",""
"sailing-trial","188","1191784","0.0-11.0-141.0","","","","false","","","","","","","","","","null","","2992.600000023842","","2","0","null","null","arrowup","[0.15,0.85,0.325,0.675]","","",""
"sailing-trial","189","1196393","0.0-11.0-142.0","","","","false","","","","","","","","","","1115.8999999761581","","237.80000007152557","","0","0","arrowleft","0","arrowleft","[0.15,0.85,0.325,0.675]","","",""
"sailing-trial","190","1201252","0.0-11.0-143.0","","","","false","","","","","","","","","","null","","1587","","1","1","null","null","arrowup","[0.15,0.85,0.325,0.675]","","",""
"sailing-trial","191","1206857","0.0-11.0-144.0","","","","false","","","","","","","","","","630.1999999284744","","273.5","","1","1","arrowleft","0","arrowright","[0.15,0.85,0.325,0.675]","","",""
"sailing-trial","192","1213918","0.0-11.0-145.0","","","","false","","","","","","","","","","null","","4519.399999976158","","3","1","null","null","arrowup","[0.15,0.85,0.325,0.675]","","",""
"sailing-trial","193","1224767","0.0-11.0-146.0","","","","false","","","","","","","","","","8100.899999976158","","75.69999992847443","","0","0","arrowleft","0","arrowleft","[0.15,0.85,0.325,0.675]","","",""
"sailing-trial","194","1227926","0.0-11.0-147.0","","","","false","","","","","","","","","","null","","1053.6000000238419","","2","1","null","null","arrowup","[0.15,0.85,0.325,0.675]","","",""
"sailing-trial","195","1233100","0.0-11.0-148.0","","","","false","","","","","","","","","","826.7000000476837","","468.60000002384186","","2","1","arrowright","1","arrowleft","[0.15,0.85,0.325,0.675]","","",""
"sailing-trial","196","1235628","0.0-11.0-149.0","","","","false","","","","","","","","","","null","","986.3999999761581","","3","0","null","null","arrowup","[0.15,0.85,0.325,0.675]","","",""
"sailing-trial","197","1240068","0.0-11.0-150.0","","","","false","","","","","","","","","","650","","572.0999999046326","","3","1","arrowright","1","arrowright","[0.15,0.85,0.325,0.675]","","",""
"sailing-trial","198","1246333","0.0-11.0-151.0","","","","false","","","","","","","","","","null","","3639.8000000715256","","0","0","null","null","arrowup","[0.15,0.85,0.325,0.675]","","",""
"sailing-trial","199","1253130","0.0-11.0-152.0","","","","false","","","","","","","","","","2817.2999999523163","","475.2999999523163","","0","0","arrowleft","0","arrowleft","[0.15,0.85,0.325,0.675]","","",""
"sailing-trial","200","1256717","0.0-11.0-153.0","","","","false","","","","","","","","","","null","","1128.5","","0","1","null","null","arrowup","[0.15,0.85,0.325,0.675]","","",""
"sailing-trial","201","1260856","0.0-11.0-154.0","","","","false","","","","","","","","","","1123.8999999761581","","401.6999999284744","","1","1","arrowleft","0","arrowright","[0.15,0.85,0.325,0.675]","","",""
"sailing-trial","202","1264135","0.0-11.0-155.0","","","","false","","","","","","","","","","null","","1301.2000000476837","","1","1","null","null","arrowup","[0.15,0.85,0.325,0.675]","","",""
"sailing-trial","203","1267567","0.0-11.0-156.0","","","","false","","","","","","","","","","625.3000000715256","","82.60000002384186","","2","0","arrowright","1","arrowleft","[0.15,0.85,0.325,0.675]","","",""
"sailing-trial","204","1270726","0.0-11.0-157.0","","","","false","","","","","","","","","","null","","1073.7999999523163","","2","1","null","null","arrowup","[0.15,0.85,0.325,0.675]","","",""
"sailing-trial","205","1273988","0.0-11.0-158.0","","","","false","","","","","","","","","","643.6000000238419","","102.10000002384186","","3","0","arrowright","1","arrowright","[0.15,0.85,0.325,0.675]","","",""
"sailing-trial","206","1276916","0.0-11.0-159.0","","","","false","","","","","","","","","","null","","1071.7000000476837","","0","0","null","null","arrowup","[0.15,0.85,0.325,0.675]","","",""
"sailing-trial","207","1280342","0.0-11.0-160.0","","","","false","","","","","","","","","","613","","171.40000009536743","","0","0","arrowleft","0","arrowleft","[0.325,0.675,0.15,0.85]","","",""
"sailing-trial","208","1284187","0.0-11.0-161.0","","","","false","","","","","","","","","","null","","1828.6000000238419","","1","1","null","null","arrowup","[0.325,0.675,0.15,0.85]","","",""
"sailing-trial","209","1288171","0.0-11.0-162.0","","","","false","","","","","","","","","","648.6999999284744","","362.59999990463257","","1","1","arrowleft","0","arrowright","[0.325,0.675,0.15,0.85]","","",""
"sailing-trial","210","1290601","0.0-11.0-163.0","","","","false","","","","","","","","","","null","","961.6999999284744","","2","0","null","null","arrowup","[0.325,0.675,0.15,0.85]","","",""
"sailing-trial","211","1295286","0.0-11.0-164.0","","","","false","","","","","","","","","","684.6000000238419","","364.10000002384186","","2","1","arrowright","1","arrowleft","[0.325,0.675,0.15,0.85]","","",""
"sailing-trial","212","1298119","0.0-11.0-165.0","","","","false","","","","","","","","","","null","","961","","3","1","null","null","arrowup","[0.325,0.675,0.15,0.85]","","",""
"sailing-trial","213","1301808","0.0-11.0-166.0","","","","false","","","","","","","","","","599.2999999523163","","75.79999995231628","","3","1","arrowright","1","arrowright","[0.325,0.675,0.15,0.85]","","",""
"sailing-trial","214","1304103","0.0-11.0-167.0","","","","false","","","","","","","","","","null","","950.7000000476837","","0","0","null","null","arrowup","[0.325,0.675,0.15,0.85]","","",""
"sailing-trial","215","1308226","0.0-11.0-168.0","","","","false","","","","","","","","","","679.8999999761581","","829.2999999523163","","0","0","arrowleft","0","arrowleft","[0.325,0.675,0.15,0.85]","","",""
"sailing-trial","216","1311258","0.0-11.0-169.0","","","","false","","","","","","","","","","null","","1179.3999999761581","","1","1","null","null","arrowup","[0.325,0.675,0.15,0.85]","","",""
"sailing-trial","217","1315696","0.0-11.0-170.0","","","","false","","","","","","","","","","811.5","","455.10000002384186","","1","1","arrowleft","0","arrowright","[0.325,0.675,0.15,0.85]","","",""
"sailing-trial","218","1320971","0.0-11.0-171.0","","","","false","","","","","","","","","","null","","3542.7000000476837","","3","1","null","null","arrowup","[0.325,0.675,0.15,0.85]","","",""
"sailing-trial","219","1325518","0.0-11.0-172.0","","","","false","","","","","","","","","","1620.8000000715256","","225.5","","2","0","arrowright","1","arrowleft","[0.325,0.675,0.15,0.85]","","",""
"sailing-trial","220","1328641","0.0-11.0-173.0","","","","false","","","","","","","","","","null","","1290.4000000953674","","1","1","null","null","arrowup","[0.325,0.675,0.15,0.85]","","",""
"sailing-trial","221","1333752","0.0-11.0-174.0","","","","false","","","","","","","","","","1399.8000000715256","","798.3999999761581","","3","1","arrowright","1","arrowright","[0.325,0.675,0.15,0.85]","","",""
"sailing-trial","222","1336432","0.0-11.0-175.0","","","","false","","","","","","","","","","null","","1007.1000000238419","","0","0","null","null","arrowup","[0.325,0.675,0.15,0.85]","","",""
"sailing-trial","223","1342143","0.0-11.0-176.0","","","","false","","","","","","","","","","1155.7000000476837","","1607.7000000476837","","0","1","arrowleft","0","arrowleft","[0.85,0.15,0.675,0.325]","","",""
"sailing-trial","224","1344973","0.0-11.0-177.0","","","","false","","","","","","","","","","null","","1032.2999999523163","","0","1","null","null","arrowup","[0.85,0.15,0.675,0.325]","","",""
"sailing-trial","225","1348507","0.0-11.0-178.0","","","","false","","","","","","","","","","805.8000000715256","","457.2000000476837","","1","0","arrowleft","0","arrowright","[0.85,0.15,0.675,0.325]","","",""
"sailing-trial","226","1351440","0.0-11.0-179.0","","","","false","","","","","","","","","","null","","1194.3000000715256","","0","1","null","null","arrowup","[0.85,0.15,0.675,0.325]","","",""
"sailing-trial","227","1355357","0.0-11.0-180.0","","","","false","","","","","","","","","","818.5","","406.7000000476837","","2","1","arrowright","1","arrowleft","[0.85,0.15,0.675,0.325]","","",""
"sailing-trial","228","1357791","0.0-11.0-181.0","","","","false","","","","","","","","","","null","","1161.5999999046326","","2","0","null","null","arrowup","[0.85,0.15,0.675,0.325]","","",""
"sailing-trial","229","1361669","0.0-11.0-182.0","","","","false","","","","","","","","","","615.2999999523163","","420.59999990463257","","3","0","arrowright","1","arrowright","[0.85,0.15,0.675,0.325]","","",""
"sailing-trial","230","1364571","0.0-11.0-183.0","","","","false","","","","","","","","","","null","","1046.4000000953674","","3","0","null","null","arrowup","[0.85,0.15,0.675,0.325]","","",""
"sailing-trial","231","1367732","0.0-11.0-184.0","","","","false","","","","","","","","","","731.6000000238419","","238.10000002384186","","0","0","arrowleft","0","arrowleft","[0.85,0.15,0.675,0.325]","","",""
"sailing-trial","232","1370861","0.0-11.0-185.0","","","","false","","","","","","","","","","null","","1750.1000000238419","","0","0","null","null","arrowup","[0.85,0.15,0.675,0.325]","","",""
"sailing-trial","233","1374891","0.0-11.0-186.0","","","","false","","","","","","","","","","827.7999999523163","","811.3000000715256","","2","0","arrowright","1","arrowleft","[0.85,0.15,0.675,0.325]","","",""
"sailing-trial","234","1377748","0.0-11.0-187.0","","","","false","","","","","","","","","","null","","1210.6999999284744","","2","0","null","null","arrowup","[0.85,0.15,0.675,0.325]","","",""
"sailing-trial","235","1381385","0.0-11.0-188.0","","","","false","","","","","","","","","","878.2000000476837","","354.3000000715256","","1","0","arrowleft","0","arrowright","[0.85,0.15,0.675,0.325]","","",""
"sailing-trial","236","1384590","0.0-11.0-189.0","","","","false","","","","","","","","","","null","","969.7000000476837","","0","1","null","null","arrowup","[0.85,0.15,0.675,0.325]","","",""
"sailing-trial","237","1388954","0.0-11.0-190.0","","","","false","","","","","","","","","","857.5","","484.5","","3","1","arrowright","1","arrowright","[0.85,0.15,0.675,0.325]","","",""
"sailing-trial","238","1392692","0.0-11.0-191.0","","","","false","","","","","","","","","","null","","2080.600000023842","","1","0","null","null","arrowup","[0.85,0.15,0.675,0.325]","","",""
"sailing-trial","239","1397242","0.0-11.0-192.0","","","","false","","","","","","","","","","853.7000000476837","","318.2999999523163","","0","1","arrowleft","0","arrowleft","[0.85,0.15,0.675,0.325]","","",""
"sailing-trial","240","1399754","0.0-11.0-193.0","","","","false","","","","","","","","","","null","","1427.2999999523163","","3","0","null","null","arrowup","[0.85,0.15,0.675,0.325]","","",""
"sailing-trial","241","1404753","0.0-11.0-194.0","","","","false","","","","","","","","","","1774.7000000476837","","3.5","","1","1","arrowleft","0","arrowright","[0.675,0.325,0.85,0.15]","","",""
"sailing-trial","242","1407677","0.0-11.0-195.0","","","","false","","","","","","","","","","null","","979.7000000476837","","2","1","null","null","arrowup","[0.675,0.325,0.85,0.15]","","",""
"sailing-trial","243","1411640","0.0-11.0-196.0","","","","false","","","","","","","","","","715.0999999046326","","409.5","","2","1","arrowright","1","arrowleft","[0.675,0.325,0.85,0.15]","","",""
"sailing-trial","244","1414575","0.0-11.0-197.0","","","","false","","","","","","","","","","null","","1065.1000000238419","","2","1","null","null","arrowup","[0.675,0.325,0.85,0.15]","","",""
"sailing-trial","245","1417536","0.0-11.0-198.0","","","","false","","","","","","","","","","742.5","","152","","3","0","arrowright","1","arrowright","[0.675,0.325,0.85,0.15]","","",""
"sailing-trial","246","1421821","0.0-11.0-199.0","","","","false","","","","","","","","","","null","","2422.2000000476837","","2","1","null","null","arrowup","[0.675,0.325,0.85,0.15]","","",""
"sailing-trial","247","1425955","0.0-11.0-200.0","","","","false","","","","","","","","","","458.60000002384186","","344.10000002384186","","0","1","arrowleft","0","arrowleft","[0.675,0.325,0.85,0.15]","","",""
"sailing-trial","248","1429304","0.0-11.0-201.0","","","","false","","","","","","","","","","null","","1066.1999999284744","","2","1","null","null","arrowup","[0.675,0.325,0.85,0.15]","","",""
"sailing-trial","249","1433470","0.0-11.0-202.0","","","","false","","","","","","","","","","1205.3999999761581","","706.3999999761581","","1","0","arrowleft","0","arrowright","[0.675,0.325,0.85,0.15]","","",""
"sailing-trial","250","1436793","0.0-11.0-203.0","","","","false","","","","","","","","","","null","","1120.2000000476837","","0","1","null","null","arrowup","[0.675,0.325,0.85,0.15]","","",""
"sailing-trial","251","1441439","0.0-11.0-204.0","","","","false","","","","","","","","","","980.1000000238419","","277.60000002384186","","2","1","arrowright","1","arrowleft","[0.675,0.325,0.85,0.15]","","",""
"sailing-trial","252","1444483","0.0-11.0-205.0","","","","false","","","","","","","","","","null","","1729.0999999046326","","3","0","null","null","arrowup","[0.675,0.325,0.85,0.15]","","",""
"sailing-trial","253","1448011","0.0-11.0-206.0","","","","false","","","","","","","","","","822.5","","99.20000004768372","","3","0","arrowright","1","arrowright","[0.675,0.325,0.85,0.15]","","",""
"sailing-trial","254","1451306","0.0-11.0-207.0","","","","false","","","","","","","","","","null","","1402.8999999761581","","0","1","null","null","arrowup","[0.675,0.325,0.85,0.15]","","",""
"sailing-trial","255","1456373","0.0-11.0-208.0","","","","false","","","","","","","","","","918.8999999761581","","962.6000000238419","","0","1","arrowleft","0","arrowleft","[0.675,0.325,0.85,0.15]","","",""
"sailing-trial","256","1459406","0.0-11.0-209.0","","","","false","","","","","","","","","","null","","1135.8999999761581","","1","1","null","null","arrowup","[0.675,0.325,0.85,0.15]","","",""
"sailing-trial","257","1463399","0.0-11.0-210.0","","","","false","","","","","","","","","","1105.1999999284744","","257.10000002384186","","1","0","arrowleft","0","arrowright","[0.675,0.325,0.85,0.15]","","",""
"sailing-trial","258","1466178","0.0-11.0-211.0","","","","false","","","","","","","","","","null","","1135.2000000476837","","2","0","null","null","arrowup","[0.675,0.325,0.85,0.15]","","",""
"sailing-trial","259","1470609","0.0-11.0-212.0","","","","false","","","","","","","","","","672.6000000238419","","244.30000007152557","","2","1","arrowright","1","arrowleft","[0.675,0.325,0.85,0.15]","","",""
"sailing-trial","260","1473315","0.0-11.0-213.0","","","","false","","","","","","","","","","null","","1087.2000000476837","","3","0","null","null","arrowup","[0.675,0.325,0.85,0.15]","","",""
"sailing-trial","261","1477974","0.0-11.0-214.0","","","","false","","","","","","","","","","562.5","","500.39999997615814","","3","1","arrowright","1","arrowright","[0.85,0.15,0.675,0.325]","","",""
"sailing-trial","262","1483080","0.0-11.0-215.0","","","","false","","","","","","","","","","null","","1075.7999999523163","","2","1","null","null","arrowup","[0.85,0.15,0.675,0.325]","","",""
"sailing-trial","263","1485970","0.0-11.0-216.0","","","","false","","","","","","","","","","175","","179.40000009536743","","0","0","arrowleft","0","arrowleft","[0.85,0.15,0.675,0.325]","","",""
"sailing-trial","264","1488337","0.0-11.0-217.0","","","","false","","","","","","","","","","null","","1352.8000000715256","","3","0","null","null","arrowup","[0.85,0.15,0.675,0.325]","","",""
"sailing-trial","265","1492636","0.0-11.0-218.0","","","","false","","","","","","","","","","1286.1000000238419","","323.60000002384186","","1","0","arrowleft","0","arrowright","[0.85,0.15,0.675,0.325]","","",""
"sailing-trial","266","1494590","0.0-11.0-219.0","","","","false","","","","","","","","","","null","","638","","1","0","null","null","arrowup","[0.85,0.15,0.675,0.325]","","",""
"sailing-trial","267","1500446","0.0-11.0-220.0","","","","false","","","","","","","","","","3460.5999999046326","","220.20000004768372","","2","0","arrowright","1","arrowleft","[0.85,0.15,0.675,0.325]","","",""
"sailing-trial","268","1502071","0.0-11.0-221.0","","","","false","","","","","","","","","","null","","454","","2","0","null","null","arrowup","[0.85,0.15,0.675,0.325]","","",""
"sailing-trial","269","1505574","0.0-11.0-222.0","","","","false","","","","","","","","","","924.5999999046326","","10","","3","1","arrowright","1","arrowright","[0.85,0.15,0.675,0.325]","","",""
"sailing-trial","270","1507459","0.0-11.0-223.0","","","","false","","","","","","","","","","null","","140","","0","1","null","null","arrowup","[0.85,0.15,0.675,0.325]","","",""
"sailing-trial","271","1512139","0.0-11.0-224.0","","","","false","","","","","","","","","","577.6000000238419","","933","","0","1","arrowleft","0","arrowleft","[0.85,0.15,0.675,0.325]","","",""
"sailing-trial","272","1516973","0.0-11.0-225.0","","","","false","","","","","","","","","","null","","1158.2000000476837","","2","1","null","null","arrowup","[0.85,0.15,0.675,0.325]","","",""
"sailing-trial","273","1521073","0.0-11.0-226.0","","","","false","","","","","","","","","","955.3999999761581","","447.7000000476837","","1","0","arrowleft","0","arrowright","[0.85,0.15,0.675,0.325]","","",""
"sailing-trial","274","1524838","0.0-11.0-227.0","","","","false","","","","","","","","","","null","","1607.6000000238419","","0","1","null","null","arrowup","[0.85,0.15,0.675,0.325]","","",""
"sailing-trial","275","1529538","0.0-11.0-228.0","","","","false","","","","","","","","","","1302.1000000238419","","454.89999997615814","","2","1","arrowright","1","arrowleft","[0.85,0.15,0.675,0.325]","","",""
"sailing-trial","276","1532134","0.0-11.0-229.0","","","","false","","","","","","","","","","null","","1038.2999999523163","","1","0","null","null","arrowup","[0.85,0.15,0.675,0.325]","","",""
"sailing-trial","277","1536103","0.0-11.0-230.0","","","","false","","","","","","","","","","832.3000000715256","","288.5","","3","0","arrowright","1","arrowright","[0.85,0.15,0.675,0.325]","","",""
"sailing-trial","278","1539053","0.0-11.0-231.0","","","","false","","","","","","","","","","null","","1933.2000000476837","","3","0","null","null","arrowup","[0.85,0.15,0.675,0.325]","","",""
"sailing-trial","279","1543128","0.0-11.0-232.0","","","","false","","","","","","","","","","570.7999999523163","","622.1000000238419","","0","1","arrowleft","0","arrowleft","[0.85,0.15,0.675,0.325]","","",""
"sailing-trial","280","1545411","0.0-11.0-233.0","","","","false","","","","","","","","","","null","","925.5","","3","0","null","null","arrowup","[0.85,0.15,0.675,0.325]","","",""
"sailing-trial","281","1548493","0.0-11.0-234.0","","","","false","","","","","","","","","","579.8999999761581","","7","","1","0","arrowleft","0","arrowright","[0.675,0.325,0.85,0.15]","","",""
"sailing-trial","282","1552359","0.0-11.0-235.0","","","","false","","","","","","","","","","null","","1974","","3","0","null","null","arrowup","[0.675,0.325,0.85,0.15]","","",""
"sailing-trial","283","1556729","0.0-11.0-236.0","","","","false","","","","","","","","","","1497.5","","150.29999995231628","","1","1","arrowleft","0","arrowright","[0.675,0.325,0.85,0.15]","","",""
"sailing-trial","284","1560007","0.0-11.0-237.0","","","","false","","","","","","","","","","null","","1216.6000000238419","","2","1","null","null","arrowup","[0.675,0.325,0.85,0.15]","","",""
"sailing-trial","285","1564357","0.0-11.0-238.0","","","","false","","","","","","","","","","1228.7000000476837","","42.5","","2","1","arrowright","1","arrowleft","[0.675,0.325,0.85,0.15]","","",""
"sailing-trial","286","1567585","0.0-11.0-239.0","","","","false","","","","","","","","","","null","","1758.3999999761581","","3","0","null","null","arrowup","[0.675,0.325,0.85,0.15]","","",""
"sailing-trial","287","1570753","0.0-11.0-240.0","","","","false","","","","","","","","","","739.7999999523163","","27.5","","3","0","arrowright","1","arrowright","[0.675,0.325,0.85,0.15]","","",""
"sailing-trial","288","1575042","0.0-11.0-241.0","","","","false","","","","","","","","","","null","","2387.7000000476837","","2","1","null","null","arrowup","[0.675,0.325,0.85,0.15]","","",""
"sailing-trial","289","1578891","0.0-11.0-242.0","","","","false","","","","","","","","","","814.6999999284744","","221.79999995231628","","0","0","arrowleft","0","arrowleft","[0.675,0.325,0.85,0.15]","","",""
"sailing-trial","290","1582109","0.0-11.0-243.0","","","","false","","","","","","","","","","null","","1556.6000000238419","","1","1","null","null","arrowup","[0.675,0.325,0.85,0.15]","","",""
"sailing-trial","291","1586076","0.0-11.0-244.0","","","","false","","","","","","","","","","768.9000000953674","","311.6999999284744","","1","1","arrowleft","0","arrowright","[0.675,0.325,0.85,0.15]","","",""
"sailing-trial","292","1591791","0.0-11.0-245.0","","","","false","","","","","","","","","","null","","1257","","2","1","null","null","arrowup","[0.675,0.325,0.85,0.15]","","",""
"sailing-trial","293","1596059","0.0-11.0-246.0","","","","false","","","","","","","","","","1001.2000000476837","","348.10000002384186","","2","1","arrowright","1","arrowleft","[0.675,0.325,0.85,0.15]","","",""
"sailing-trial","294","1599041","0.0-11.0-247.0","","","","false","","","","","","","","","","null","","955.5999999046326","","2","1","null","null","arrowup","[0.675,0.325,0.85,0.15]","","",""
"sailing-trial","295","1602213","0.0-11.0-248.0","","","","false","","","","","","","","","","638","","113.30000007152557","","3","0","arrowright","1","arrowright","[0.675,0.325,0.85,0.15]","","",""
"sailing-trial","296","1609000","0.0-11.0-249.0","","","","false","","","","","","","","","","null","","4550.899999976158","","2","1","null","null","arrowup","[0.675,0.325,0.85,0.15]","","",""
"sailing-trial","297","1617865","0.0-11.0-250.0","","","","false","","","","","","","","","","2016.7000000476837","","4092.7000000476837","","0","1","arrowleft","0","arrowleft","[0.675,0.325,0.85,0.15]","","",""
"sailing-trial","298","1619940","0.0-11.0-251.0","","","","false","","","","","","","","","","null","","1030.1999999284744","","3","0","null","null","arrowup","[0.675,0.325,0.85,0.15]","","",""
"sailing-trial","299","1623690","0.0-11.0-252.0","","","","false","","","","","","","","","","923.5999999046326","","442","","1","0","arrowleft","0","arrowright","[0.675,0.325,0.85,0.15]","","",""
"sailing-trial","300","1626109","0.0-11.0-253.0","","","","false","","","","","","","","","","null","","820","","1","1","null","null","arrowup","[0.675,0.325,0.85,0.15]","","",""
"sailing-trial","301","1632740","0.0-11.0-254.0","","","","false","","","","","","","","","","1186.2999999523163","","2312.2999999523163","","2","0","arrowright","1","arrowleft","[0.675,0.325,0.85,0.15]","","",""
"sailing-trial","302","1635123","0.0-11.0-255.0","","","","false","","","","","","","","","","null","","142.10000002384186","","1","0","null","null","arrowup","[0.675,0.325,0.85,0.15]","","",""
"sailing-trial","303","1639573","0.0-11.0-256.0","","","","false","","","","","","","","","","1379.8000000715256","","237.10000002384186","","0","0","arrowleft","0","arrowleft","[0.675,0.325,0.85,0.15]","","",""
"sailing-trial","304","1642691","0.0-11.0-257.0","","","","false","","","","","","","","","","null","","621.6999999284744","","2","0","null","null","arrowup","[0.675,0.325,0.85,0.15]","","",""
"sailing-trial","305","1650372","0.0-11.0-258.0","","","","false","","","","","","","","","","4489.099999904633","","127","","1","0","arrowleft","0","arrowright","[0.85,0.15,0.675,0.325]","","",""
"sailing-trial","306","1651990","0.0-11.0-259.0","","","","false","","","","","","","","","","null","","181.5","","3","0","null","null","arrowup","[0.85,0.15,0.675,0.325]","","",""
"sailing-trial","307","1656826","0.0-11.0-260.0","","","","false","","","","","","","","","","1195","","428.39999997615814","","2","1","arrowright","1","arrowleft","[0.85,0.15,0.675,0.325]","","",""
"sailing-trial","308","1659859","0.0-11.0-261.0","","","","false","","","","","","","","","","null","","1713","","1","0","null","null","arrowup","[0.85,0.15,0.675,0.325]","","",""
"sailing-trial","309","1663293","0.0-11.0-262.0","","","","false","","","","","","","","","","740.2000000476837","","329.60000002384186","","3","0","arrowright","1","arrowright","[0.85,0.15,0.675,0.325]","","",""
"sailing-trial","310","1667771","0.0-11.0-263.0","","","","false","","","","","","","","","","null","","2820.2999999523163","","1","0","null","null","arrowup","[0.85,0.15,0.675,0.325]","","",""
"sailing-trial","311","1671322","0.0-11.0-264.0","","","","false","","","","","","","","","","255.09999990463257","","281","","2","0","arrowright","1","arrowleft","[0.85,0.15,0.675,0.325]","","",""
"sailing-trial","312","1674910","0.0-11.0-265.0","","","","false","","","","","","","","","","null","","1383.0999999046326","","0","1","null","null","arrowup","[0.85,0.15,0.675,0.325]","","",""
"sailing-trial","313","1679152","0.0-11.0-266.0","","","","false","","","","","","","","","","819.4000000953674","","707","","3","1","arrowright","1","arrowright","[0.85,0.15,0.675,0.325]","","",""
"sailing-trial","314","1683077","0.0-11.0-267.0","","","","false","","","","","","","","","","null","","1883.5","","3","1","null","null","arrowup","[0.85,0.15,0.675,0.325]","","",""
"sailing-trial","315","1686711","0.0-11.0-268.0","","","","false","","","","","","","","","","603.9000000953674","","157.5","","1","0","arrowleft","0","arrowright","[0.85,0.15,0.675,0.325]","","",""
"sailing-trial","316","1689355","0.0-11.0-269.0","","","","false","","","","","","","","","","null","","1000.2999999523163","","1","0","null","null","arrowup","[0.85,0.15,0.675,0.325]","","",""
"sailing-trial","317","1693707","0.0-11.0-270.0","","","","false","","","","","","","","","","656.8999999761581","","808.1000000238419","","0","1","arrowleft","0","arrowleft","[0.85,0.15,0.675,0.325]","","",""
"sailing-trial","318","1699179","0.0-11.0-271.0","","","","false","","","","","","","","","","null","","2481.3000000715256","","1","1","null","null","arrowup","[0.85,0.15,0.675,0.325]","","",""
"sailing-trial","319","1704073","0.0-11.0-272.0","","","","false","","","","","","","","","","1924.7000000476837","","94.20000004768372","","0","1","arrowleft","0","arrowleft","[0.85,0.15,0.675,0.325]","","",""
"sailing-trial","320","1706608","0.0-11.0-273.0","","","","false","","","","","","","","","","null","","731.6999999284744","","0","1","null","null","arrowup","[0.85,0.15,0.675,0.325]","","",""
"sailing-trial","321","1711256","0.0-11.0-274.0","","","","false","","","","","","","","","","1129","","571.3999999761581","","1","1","arrowleft","0","arrowright","[0.675,0.325,0.85,0.15]","","",""
"sailing-trial","322","1714138","0.0-11.0-275.0","","","","false","","","","","","","","","","null","","1175.3999999761581","","3","0","null","null","arrowup","[0.675,0.325,0.85,0.15]","","",""
"sailing-trial","323","1718141","0.0-11.0-276.0","","","","false","","","","","","","","","","843.3000000715256","","327.2999999523163","","2","1","arrowright","1","arrowleft","[0.675,0.325,0.85,0.15]","","",""
"sailing-trial","324","1722396","0.0-11.0-277.0","","","","false","","","","","","","","","","null","","2192.5","","0","1","null","null","arrowup","[0.675,0.325,0.85,0.15]","","",""
"sailing-trial","325","1726120","0.0-11.0-278.0","","","","false","","","","","","","","","","851.3999999761581","","137.19999992847443","","3","0","arrowright","1","arrowright","[0.675,0.325,0.85,0.15]","","",""
"sailing-trial","326","1729191","0.0-11.0-279.0","","","","false","","","","","","","","","","null","","1128.9000000953674","","2","1","null","null","arrowup","[0.675,0.325,0.85,0.15]","","",""
"sailing-trial","327","1732446","0.0-11.0-280.0","","","","false","","","","","","","","","","606.8999999761581","","240.70000004768372","","0","0","arrowleft","0","arrowleft","[0.675,0.325,0.85,0.15]","","",""
"sailing-trial","328","1735507","0.0-11.0-281.0","","","","false","","","","","","","","","","null","","1153.8999999761581","","3","1","null","null","arrowup","[0.675,0.325,0.85,0.15]","","",""
"sailing-trial","329","1738680","0.0-11.0-282.0","","","","false","","","","","","","","","","475.59999990463257","","345.10000002384186","","1","0","arrowleft","0","arrowright","[0.675,0.325,0.85,0.15]","","",""
"sailing-trial","330","1742425","0.0-11.0-283.0","","","","false","","","","","","","","","","null","","1557.3999999761581","","0","1","null","null","arrowup","[0.675,0.325,0.85,0.15]","","",""
"sailing-trial","331","1747208","0.0-11.0-284.0","","","","false","","","","","","","","","","1084.1999999284744","","201.60000002384186","","2","1","arrowright","1","arrowleft","[0.675,0.325,0.85,0.15]","","",""
"sailing-trial","332","1750751","0.0-11.0-285.0","","","","false","","","","","","","","","","null","","1665.5","","0","1","null","null","arrowup","[0.675,0.325,0.85,0.15]","","",""
"sailing-trial","333","1754138","0.0-11.0-286.0","","","","false","","","","","","","","","","789.8999999761581","","41.39999997615814","","3","0","arrowright","1","arrowright","[0.675,0.325,0.85,0.15]","","",""
"sailing-trial","334","1756318","0.0-11.0-287.0","","","","false","","","","","","","","","","null","","886.5999999046326","","3","0","null","null","arrowup","[0.675,0.325,0.85,0.15]","","",""
"sailing-trial","335","1760462","0.0-11.0-288.0","","","","false","","","","","","","","","","609.7000000476837","","332.90000009536743","","0","1","arrowleft","0","arrowleft","[0.675,0.325,0.85,0.15]","","",""
"sailing-trial","336","1763849","0.0-11.0-289.0","","","","false","","","","","","","","","","null","","1718","","3","0","null","null","arrowup","[0.675,0.325,0.85,0.15]","","",""
"sailing-trial","337","1769020","0.0-11.0-290.0","","","","false","","","","","","","","","","1244","","454","","1","0","arrowleft","0","arrowright","[0.85,0.15,0.675,0.325]","","",""
"sailing-trial","338","1771728","0.0-11.0-291.0","","","","false","","","","","","","","","","null","","1289","","3","0","null","null","arrowup","[0.85,0.15,0.675,0.325]","","",""
"sailing-trial","339","1776994","0.0-11.0-292.0","","","","false","","","","","","","","","","1681.2000000476837","","384.59999990463257","","2","1","arrowright","1","arrowleft","[0.85,0.15,0.675,0.325]","","",""
"sailing-trial","340","1780464","0.0-11.0-293.0","","","","false","","","","","","","","","","null","","1143.2000000476837","","0","1","null","null","arrowup","[0.85,0.15,0.675,0.325]","","",""
"sailing-trial","341","1783627","0.0-11.0-294.0","","","","false","","","","","","","","","","680.2000000476837","","72","","3","0","arrowright","1","arrowright","[0.85,0.15,0.675,0.325]","","",""
"sailing-trial","342","1785794","0.0-11.0-295.0","","","","false","","","","","","","","","","null","","236.29999995231628","","0","0","null","null","arrowup","[0.85,0.15,0.675,0.325]","","",""
"sailing-trial","343","1791211","0.0-11.0-296.0","","","","false","","","","","","","","","","498.60000002384186","","2283.2999999523163","","0","1","arrowleft","0","arrowleft","[0.85,0.15,0.675,0.325]","","",""
"sailing-trial","344","1793210","0.0-11.0-297.0","","","","false","","","","","","","","","","null","","732.5","","1","0","null","null","arrowup","[0.85,0.15,0.675,0.325]","","",""
"sailing-trial","345","1796651","0.0-11.0-298.0","","","","false","","","","","","","","","","894.0999999046326","","480.10000002384186","","1","0","arrowleft","0","arrowright","[0.85,0.15,0.675,0.325]","","",""
"sailing-trial","346","1799054","0.0-11.0-299.0","","","","false","","","","","","","","","","null","","1014.5","","3","0","null","null","arrowup","[0.85,0.15,0.675,0.325]","","",""
"sailing-trial","347","1803328","0.0-11.0-300.0","","","","false","","","","","","","","","","681.3999999761581","","635.3999999761581","","2","1","arrowright","1","arrowleft","[0.85,0.15,0.675,0.325]","","",""
"sailing-trial","348","1806319","0.0-11.0-301.0","","","","false","","","","","","","","","","null","","966.3999999761581","","0","1","null","null","arrowup","[0.85,0.15,0.675,0.325]","","",""
"sailing-trial","349","1809476","0.0-11.0-302.0","","","","false","","","","","","","","","","664.4000000953674","","45.199999928474426","","3","0","arrowright","1","arrowright","[0.85,0.15,0.675,0.325]","","",""
"sailing-trial","350","1811934","0.0-11.0-303.0","","","","false","","","","","","","","","","null","","1171.5","","1","0","null","null","arrowup","[0.85,0.15,0.675,0.325]","","",""
"sailing-trial","351","1815544","0.0-11.0-304.0","","","","false","","","","","","","","","","582.3000000715256","","409.2999999523163","","0","1","arrowleft","0","arrowleft","[0.85,0.15,0.675,0.325]","","",""
"sailing-trial","352","1818092","0.0-11.0-305.0","","","","false","","","","","","","","","","null","","1141.9000000953674","","1","0","null","null","arrowup","[0.85,0.15,0.675,0.325]","","",""
"sailing-trial","353","1822393","0.0-11.0-306.0","","","","false","","","","","","","","","","1185.8999999761581","","465.39999997615814","","1","0","arrowleft","0","arrowright","[0.675,0.325,0.85,0.15]","","",""
"sailing-trial","354","1825016","0.0-11.0-307.0","","","","false","","","","","","","","","","null","","1286.6000000238419","","0","0","null","null","arrowup","[0.675,0.325,0.85,0.15]","","",""
"sailing-trial","355","1829896","0.0-11.0-308.0","","","","false","","","","","","","","","","1555.5","","150.79999995231628","","2","1","arrowright","1","arrowleft","[0.675,0.325,0.85,0.15]","","",""
"sailing-trial","356","1833144","0.0-11.0-309.0","","","","false","","","","","","","","","","null","","1012.3999999761581","","0","1","null","null","arrowup","[0.675,0.325,0.85,0.15]","","",""
"sailing-trial","357","1837388","0.0-11.0-310.0","","","","false","","","","","","","","","","1224.3999999761581","","159","","3","0","arrowright","1","arrowright","[0.675,0.325,0.85,0.15]","","",""
"sailing-trial","358","1840678","0.0-11.0-311.0","","","","false","","","","","","","","","","null","","1949.1000000238419","","3","0","null","null","arrowup","[0.675,0.325,0.85,0.15]","","",""
"sailing-trial","359","1845346","0.0-11.0-312.0","","","","false","","","","","","","","","","1151.2000000476837","","424.5","","0","1","arrowleft","0","arrowleft","[0.675,0.325,0.85,0.15]","","",""
"sailing-trial","360","1847668","0.0-11.0-313.0","","","","false","","","","","","","","","","null","","997.5","","3","0","null","null","arrowup","[0.675,0.325,0.85,0.15]","","",""
"sailing-trial","361","1851479","0.0-11.0-314.0","","","","false","","","","","","","","","","576.2000000476837","","78.70000004768372","","1","1","arrowleft","0","arrowright","[0.675,0.325,0.85,0.15]","","",""
"sailing-trial","362","1855029","0.0-11.0-315.0","","","","false","","","","","","","","","","null","","1453.6000000238419","","3","1","null","null","arrowup","[0.675,0.325,0.85,0.15]","","",""
"sailing-trial","363","1859880","0.0-11.0-316.0","","","","false","","","","","","","","","","1362.2999999523163","","425.89999997615814","","2","1","arrowright","1","arrowleft","[0.675,0.325,0.85,0.15]","","",""
"sailing-trial","364","1863677","0.0-11.0-317.0","","","","false","","","","","","","","","","null","","2159.3000000715256","","3","0","null","null","arrowup","[0.675,0.325,0.85,0.15]","","",""
"sailing-trial","365","1867389","0.0-11.0-318.0","","","","false","","","","","","","","","","984","","357.60000002384186","","3","0","arrowright","1","arrowright","[0.675,0.325,0.85,0.15]","","",""
"sailing-trial","366","1870744","0.0-11.0-319.0","","","","false","","","","","","","","","","null","","1092","","1","1","null","null","arrowup","[0.675,0.325,0.85,0.15]","","",""
"sailing-trial","367","1874569","0.0-11.0-320.0","","","","false","","","","","","","","","","761.6999999284744","","433.2999999523163","","0","0","arrowleft","0","arrowleft","[0.675,0.325,0.85,0.15]","","",""
"sailing-trial","368","1877803","0.0-11.0-321.0","","","","false","","","","","","","","","","null","","1636","","0","0","null","null","arrowup","[0.675,0.325,0.85,0.15]","","",""
"sailing-trial","369","1883466","0.0-11.0-322.0","","","","false","","","","","","","","","","1175.3999999761581","","1095.2999999523163","","2","1","arrowright","1","arrowleft","[0.85,0.15,0.675,0.325]","","",""
"sailing-trial","370","1886456","0.0-11.0-323.0","","","","false","","","","","","","","","","null","","1234.6000000238419","","1","0","null","null","arrowup","[0.85,0.15,0.675,0.325]","","",""
"sailing-trial","371","1891394","0.0-11.0-324.0","","","","false","","","","","","","","","","1026.6000000238419","","63.299999952316284","","3","1","arrowright","1","arrowright","[0.85,0.15,0.675,0.325]","","",""
"sailing-trial","372","1894816","0.0-11.0-325.0","","","","false","","","","","","","","","","null","","2060.600000023842","","3","0","null","null","arrowup","[0.85,0.15,0.675,0.325]","","",""
"sailing-trial","373","1900833","0.0-11.0-326.0","","","","false","","","","","","","","","","656.8999999761581","","2139.8000000715256","","0","1","arrowleft","0","arrowleft","[0.85,0.15,0.675,0.325]","","",""
"sailing-trial","374","1904894","0.0-11.0-327.0","","","","false","","","","","","","","","","null","","1882.1000000238419","","1","1","null","null","arrowup","[0.85,0.15,0.675,0.325]","","",""
"sailing-trial","375","1908281","0.0-11.0-328.0","","","","false","","","","","","","","","","796.8000000715256","","270.5","","1","0","arrowleft","0","arrowright","[0.85,0.15,0.675,0.325]","","",""
"sailing-trial","376","1910982","0.0-11.0-329.0","","","","false","","","","","","","","","","null","","1014.3999999761581","","0","1","null","null","arrowup","[0.85,0.15,0.675,0.325]","","",""
"sailing-trial","377","1915211","0.0-11.0-330.0","","","","false","","","","","","","","","","1394.7999999523163","","30.600000023841858","","2","1","arrowright","1","arrowleft","[0.85,0.15,0.675,0.325]","","",""
"sailing-trial","378","1918233","0.0-11.0-331.0","","","","false","","","","","","","","","","null","","1040.1000000238419","","0","1","null","null","arrowup","[0.85,0.15,0.675,0.325]","","",""
"sailing-trial","379","1922078","0.0-11.0-332.0","","","","false","","","","","","","","","","499.60000002384186","","472.5","","3","1","arrowright","1","arrowright","[0.85,0.15,0.675,0.325]","","",""
"sailing-trial","380","1927143","0.0-11.0-333.0","","","","false","","","","","","","","","","null","","3604.899999976158","","1","0","null","null","arrowup","[0.85,0.15,0.675,0.325]","","",""
"sailing-trial","381","1931797","0.0-11.0-334.0","","","","false","","","","","","","","","","816.5","","869.6000000238419","","0","1","arrowleft","0","arrowleft","[0.85,0.15,0.675,0.325]","","",""
"sailing-trial","382","1936161","0.0-11.0-335.0","","","","false","","","","","","","","","","null","","2804.100000023842","","3","0","null","null","arrowup","[0.85,0.15,0.675,0.325]","","",""
"sailing-trial","383","1941219","0.0-11.0-336.0","","","","false","","","","","","","","","","1762.1999999284744","","244.80000007152557","","2","1","arrowright","1","arrowleft","[0.85,0.15,0.675,0.325]","","",""
"sailing-trial","384","1945380","0.0-11.0-337.0","","","","false","","","","","","","","","","null","","1863.5","","0","1","null","null","arrowup","[0.85,0.15,0.675,0.325]","","",""
"sailing-trial","385","1950298","0.0-11.0-338.0","","","","false","","","","","","","","","","1263.8999999761581","","447","","2","1","arrowright","1","arrowleft","[0.85,0.15,0.675,0.325]","","",""
"sailing-trial","386","1953236","0.0-11.0-339.0","","","","false","","","","","","","","","","null","","1537.1000000238419","","1","0","null","null","arrowup","[0.85,0.15,0.675,0.325]","","",""
"sailing-trial","387","1957786","0.0-11.0-340.0","","","","false","","","","","","","","","","923","","722.5","","0","1","arrowleft","0","arrowleft","[0.85,0.15,0.675,0.325]","","",""
"sailing-trial","388","1961786","0.0-11.0-341.0","","","","false","","","","","","","","","","null","","1996.7999999523163","","2","1","null","null","arrowup","[0.85,0.15,0.675,0.325]","","",""
"sailing-trial","389","1965486","0.0-11.0-342.0","","","","false","","","","","","","","","","974.3999999761581","","347.6999999284744","","2","0","arrowright","1","arrowleft","[0.15,0.85,0.325,0.675]","","",""
"sailing-trial","390","1968144","0.0-11.0-343.0","","","","false","","","","","","","","","","null","","1145.2999999523163","","3","0","null","null","arrowup","[0.15,0.85,0.325,0.675]","","",""
"sailing-trial","391","1971969","0.0-11.0-344.0","","","","false","","","","","","","","","","675.4000000953674","","228.79999995231628","","3","1","arrowright","1","arrowright","[0.15,0.85,0.325,0.675]","","",""
"sailing-trial","392","1975333","0.0-11.0-345.0","","","","false","","","","","","","","","","null","","1098.7999999523163","","0","1","null","null","arrowup","[0.15,0.85,0.325,0.675]","","",""
"sailing-trial","393","1979585","0.0-11.0-346.0","","","","false","","","","","","","","","","1018.7999999523163","","372.2999999523163","","0","1","arrowleft","0","arrowleft","[0.15,0.85,0.325,0.675]","","",""
"sailing-trial","394","1982249","0.0-11.0-347.0","","","","false","","","","","","","","","","null","","1112.3999999761581","","0","0","null","null","arrowup","[0.15,0.85,0.325,0.675]","","",""
"sailing-trial","395","1986186","0.0-11.0-348.0","","","","false","","","","","","","","","","769","","148.39999997615814","","1","1","arrowleft","0","arrowright","[0.15,0.85,0.325,0.675]","","",""
"sailing-trial","396","1989876","0.0-11.0-349.0","","","","false","","","","","","","","","","null","","2322.5","","0","0","null","null","arrowup","[0.15,0.85,0.325,0.675]","","",""
"sailing-trial","397","1994346","0.0-11.0-350.0","","","","false","","","","","","","","","","793.5","","638.8999999761581","","3","1","arrowright","1","arrowright","[0.15,0.85,0.325,0.675]","","",""
"sailing-trial","398","1997055","0.0-11.0-351.0","","","","false","","","","","","","","","","null","","1364","","2","0","null","null","arrowup","[0.15,0.85,0.325,0.675]","","",""
"sailing-trial","399","2001803","0.0-11.0-352.0","","","","false","","","","","","","","","","693.8999999761581","","293.7999999523163","","2","0","arrowright","1","arrowleft","[0.15,0.85,0.325,0.675]","","",""
"sailing-trial","400","2006682","0.0-11.0-353.0","","","","false","","","","","","","","","","null","","3232.7000000476837","","1","1","null","null","arrowup","[0.15,0.85,0.325,0.675]","","",""
"sailing-trial","401","2011119","0.0-11.0-354.0","","","","false","","","","","","","","","","669","","646.7999999523163","","1","1","arrowleft","0","arrowright","[0.15,0.85,0.325,0.675]","","",""
"sailing-trial","402","2014217","0.0-11.0-355.0","","","","false","","","","","","","","","","null","","1215.7000000476837","","3","1","null","null","arrowup","[0.15,0.85,0.325,0.675]","","",""
"sailing-trial","403","2017928","0.0-11.0-356.0","","","","false","","","","","","","","","","587","","740.3000000715256","","0","0","arrowleft","0","arrowleft","[0.15,0.85,0.325,0.675]","","",""
"sailing-trial","404","2021662","0.0-11.0-357.0","","","","false","","","","","","","","","","null","","1327.3999999761581","","1","1","null","null","arrowup","[0.15,0.85,0.325,0.675]","","",""
"sailing-trial","405","2026786","0.0-11.0-358.0","","","","false","","","","","","","","","","1920.1000000238419","","252","","1","1","arrowleft","0","arrowright","[0.15,0.85,0.325,0.675]","","",""
"sailing-trial","406","2030268","0.0-11.0-359.0","","","","false","","","","","","","","","","null","","1121.3000000715256","","3","1","null","null","arrowup","[0.15,0.85,0.325,0.675]","","",""
"sailing-trial","407","2034579","0.0-11.0-360.0","","","","false","","","","","","","","","","1299.7000000476837","","359.5","","2","0","arrowright","1","arrowleft","[0.15,0.85,0.325,0.675]","","",""
"sailing-trial","408","2038135","0.0-11.0-361.0","","","","false","","","","","","","","","","null","","1977.3999999761581","","2","0","null","null","arrowup","[0.15,0.85,0.325,0.675]","","",""
"sailing-trial","409","2042135","0.0-11.0-362.0","","","","false","","","","","","","","","","943.5","","149.20000004768372","","3","1","arrowright","1","arrowright","[0.15,0.85,0.325,0.675]","","",""
"sailing-trial","410","2046230","0.0-11.0-363.0","","","","false","","","","","","","","","","null","","2368.2000000476837","","0","0","null","null","arrowup","[0.15,0.85,0.325,0.675]","","",""
"sailing-trial","411","2052219","0.0-11.0-364.0","","","","false","","","","","","","","","","1503.6999999284744","","233","","2","1","arrowright","1","arrowleft","[0.325,0.675,0.15,0.85]","","",""
"sailing-trial","412","2054845","0.0-11.0-365.0","","","","false","","","","","","","","","","null","","1287.5","","0","0","null","null","arrowup","[0.325,0.675,0.15,0.85]","","",""
"sailing-trial","413","2058114","0.0-11.0-366.0","","","","false","","","","","","","","","","418","","264","","0","1","arrowleft","0","arrowleft","[0.325,0.675,0.15,0.85]","","",""
"sailing-trial","414","2060930","0.0-11.0-367.0","","","","false","","","","","","","","","","null","","913.5","","3","1","null","null","arrowup","[0.325,0.675,0.15,0.85]","","",""
"sailing-trial","415","2065394","0.0-11.0-368.0","","","","false","","","","","","","","","","492.5","","1150.8999999761581","","0","0","arrowleft","0","arrowleft","[0.325,0.675,0.15,0.85]","","",""
"sailing-trial","416","2068898","0.0-11.0-369.0","","","","false","","","","","","","","","","null","","892.7999999523163","","3","1","null","null","arrowup","[0.325,0.675,0.15,0.85]","","",""
"sailing-trial","417","2073675","0.0-11.0-370.0","","","","false","","","","","","","","","","1097.4000000953674","","923.6000000238419","","0","0","arrowleft","0","arrowleft","[0.325,0.675,0.15,0.85]","","",""
"sailing-trial","418","2077197","0.0-11.0-371.0","","","","false","","","","","","","","","","null","","807.1999999284744","","2","1","null","null","arrowup","[0.325,0.675,0.15,0.85]","","",""
"sailing-trial","419","2080814","0.0-11.0-372.0","","","","false","","","","","","","","","","628.6000000238419","","418","","0","0","arrowleft","0","arrowleft","[0.325,0.675,0.15,0.85]","","",""
"sailing-trial","420","2083915","0.0-11.0-373.0","","","","false","","","","","","","","","","null","","1214.5","","3","1","null","null","arrowup","[0.325,0.675,0.15,0.85]","","",""
"sailing-trial","421","2088880","0.0-11.0-374.0","","","","false","","","","","","","","","","466","","516.5","","0","0","arrowleft","0","arrowleft","[0.325,0.675,0.15,0.85]","","",""
"sailing-trial","422","2093029","0.0-11.0-375.0","","","","false","","","","","","","","","","null","","1521.3999999761581","","0","0","null","null","arrowup","[0.325,0.675,0.15,0.85]","","",""
"sailing-trial","423","2098951","0.0-11.0-376.0","","","","false","","","","","","","","","","1282.1000000238419","","1722.6999999284744","","0","0","arrowleft","0","arrowleft","[0.325,0.675,0.15,0.85]","","",""
"sailing-trial","424","2104336","0.0-11.0-377.0","","","","false","","","","","","","","","","null","","3008.3000000715256","","1","1","null","null","arrowup","[0.325,0.675,0.15,0.85]","","",""
"sailing-trial","425","2107389","0.0-11.0-378.0","","","","false","","","","","","","","","","520.6000000238419","","418.7999999523163","","0","0","arrowleft","0","arrowleft","[0.325,0.675,0.15,0.85]","","",""
"sailing-trial","426","2110096","0.0-11.0-379.0","","","","false","","","","","","","","","","null","","864.5","","1","1","null","null","arrowup","[0.325,0.675,0.15,0.85]","","",""
"sailing-trial","427","2112725","0.0-11.0-380.0","","","","false","","","","","","","","","","445.7000000476837","","37.5","","0","0","arrowleft","0","arrowleft","[0.325,0.675,0.15,0.85]","","",""
"sailing-trial","428","2115862","0.0-11.0-381.0","","","","false","","","","","","","","","","null","","839.7000000476837","","1","1","null","null","arrowup","[0.325,0.675,0.15,0.85]","","",""
"sailing-trial","429","2119429","0.0-11.0-382.0","","","","false","","","","","","","","","","603.2000000476837","","370.7999999523163","","0","0","arrowleft","0","arrowleft","[0.15,0.85,0.325,0.675]","","",""
"sailing-trial","430","2122452","0.0-11.0-383.0","","","","false","","","","","","","","","","null","","1067","","3","0","null","null","arrowup","[0.15,0.85,0.325,0.675]","","",""
"sailing-trial","431","2125784","0.0-11.0-384.0","","","","false","","","","","","","","","","654.7000000476837","","277.7999999523163","","0","0","arrowleft","0","arrowleft","[0.15,0.85,0.325,0.675]","","",""
"sailing-trial","432","2129063","0.0-11.0-385.0","","","","false","","","","","","","","","","null","","959.5","","3","1","null","null","arrowup","[0.15,0.85,0.325,0.675]","","",""
"sailing-trial","433","2133058","0.0-11.0-386.0","","","","false","","","","","","","","","","528.5","","856.7999999523163","","0","0","arrowleft","0","arrowleft","[0.15,0.85,0.325,0.675]","","",""
"sailing-trial","434","2135544","0.0-11.0-387.0","","","","false","","","","","","","","","","null","","869.1000000238419","","0","0","null","null","arrowup","[0.15,0.85,0.325,0.675]","","",""
"sailing-trial","435","2138957","0.0-11.0-388.0","","","","false","","","","","","","","","","508.6999999284744","","492.5","","0","0","arrowleft","0","arrowleft","[0.15,0.85,0.325,0.675]","","",""
"sailing-trial","436","2141561","0.0-11.0-389.0","","","","false","","","","","","","","","","null","","1155.8000000715256","","2","0","null","null","arrowup","[0.15,0.85,0.325,0.675]","","",""
"sailing-trial","437","2145141","0.0-11.0-390.0","","","","false","","","","","","","","","","487.6999999284744","","546.1999999284744","","0","0","arrowleft","0","arrowleft","[0.15,0.85,0.325,0.675]","","",""
"sailing-trial","438","2148396","0.0-11.0-391.0","","","","false","","","","","","","","","","null","","1164.9000000953674","","0","1","null","null","arrowup","[0.15,0.85,0.325,0.675]","","",""
"sailing-trial","439","2153469","0.0-11.0-392.0","","","","false","","","","","","","","","","528.8999999761581","","601.8999999761581","","0","0","arrowleft","0","arrowleft","[0.15,0.85,0.325,0.675]","","",""
"sailing-trial","440","2156601","0.0-11.0-393.0","","","","false","","","","","","","","","","null","","1081.5","","1","1","null","null","arrowup","[0.15,0.85,0.325,0.675]","","",""
"sailing-trial","441","2161212","0.0-11.0-394.0","","","","false","","","","","","","","","","1152.2000000476837","","442.5","","1","1","arrowleft","0","arrowright","[0.15,0.85,0.325,0.675]","","",""
"sailing-trial","442","2163828","0.0-11.0-395.0","","","","false","","","","","","","","","","null","","1017.2000000476837","","0","0","null","null","arrowup","[0.15,0.85,0.325,0.675]","","",""
"sailing-trial","443","2167931","0.0-11.0-396.0","","","","false","","","","","","","","","","883.6000000238419","","204.10000002384186","","2","1","arrowright","1","arrowleft","[0.15,0.85,0.325,0.675]","","",""
"sailing-trial","444","2170922","0.0-11.0-397.0","","","","false","","","","","","","","","","null","","1168.2000000476837","","1","1","null","null","arrowup","[0.15,0.85,0.325,0.675]","","",""
"sailing-trial","445","2174398","0.0-11.0-398.0","","","","false","","","","","","","","","","647.1000000238419","","288.5","","3","0","arrowright","1","arrowright","[0.15,0.85,0.325,0.675]","","",""
"sailing-trial","446","2177320","0.0-11.0-399.0","","","","false","","","","","","","","","","null","","1334.8000000715256","","3","0","null","null","arrowup","[0.15,0.85,0.325,0.675]","","",""
"instructions","447","2187383","0.0-12.0","","","","","","","","","","10060.399999976158","","","","","","","","","","","","","","","","[{""page_index"":0,""viewing_time"":10058.299999952316}]"
"survey-debrief","448","2258349","0.0-13.0","","","","","","","","","","70961.89999997616","","","","","","","","","","","","","","{""difficulty"":""3"",""fun"":""2"",""clarity"":""4"",""strategy"":""no i used a pattern for some of it though"",""feedback"":""no""}","",""
