"trial_type","trial_index","time_elapsed","internal_node_id","value","metadata","success","timeout","failed_images","failed_audio","failed_video","browser_interaction","low_quality","rt","stimulus","response","button_pressed","island_rt","island_response","boat_rt","boat_response","boat","reward","island_key","island","boat_key","reward_probabilities","responses","num_errors","view_history"
"pavlovia","0","3","0.0-0.0","","","","","","","","","","","","","","","","","","","","","","","","","",""
"call-function","1","3","0.0-1.0","","{""task_version"":""sailing_part1_v1"",""task_condition"":""good"",""boats"":[""C"",""D"",""A"",""B""],""boats_demo"":[""E"",""G"",""F"",""H""],""islands"":[""B"",""A""],""subject_id"":""14789"",""age"":""14"",""gender"":""Male""}","","","","","","","","","","","","","","","","","","","","","","","",""
"preload","2","1715","0.0-2.0","","","true","false","[]","[]","[]","[{""event"":""fullscreenenter"",""trial"":3,""time"":4400}]","false","","","","","","","","","","","","","","","","",""
"fullscreen","3","5367","0.0-3.0","","","true","","","","","","","","","","","","","","","","","","","","","","",""
"audio-keyboard-response","4","7229","0.0-4.0-0.0","","","","","","","","","","0","audio/beep_loop.wav"," ","","","","","","","","","","","","","",""
"audio-test","5","9048","0.0-4.0-1.0","","","","","","","","","","null","audio/turtle.mp3","","3","","","","","","","","","","","","",""
"audio-test","6","11448","0.0-4.0-2.0","","","","","","","","","","null","audio/shark.mp3","","2","","","","","","","","","","","","",""
"sailing-instructions","7","52584","0.0-5.0-0.0-0.0","","","","","","","","","","","","","","null","null","null","null","null","null","","","","","","",""
"sailing-trial","8","56071","0.0-5.0-0.0-1.0-0.0","","","","false","","","","","","","","","","2308","","null","","null","null","arrowleft","0","null","null","","",""
"sailing-trial","9","58924","0.0-5.0-0.0-1.0-1.0","","","","false","","","","","","","","","","1722.0000000000073","","null","","null","null","arrowright","1","null","null","","",""
"sailing-trial","10","61638","0.0-5.0-0.0-1.0-2.0","","","","false","","","","","","","","","","1588.9999999999927","","null","","null","null","arrowright","1","null","null","","",""
"sailing-instructions","11","113418","0.0-5.0-0.0-2.0","","","","","","","","","","","","","","null","null","null","null","0","null","","","","","","",""
"sailing-trial","12","120842","0.0-5.0-0.0-3.0-0.0","","","","false","","","","","","","","","","null","","3744","","2","1","null","null","arrowleft","[1,1,1,1]","","",""
"sailing-trial","13","125541","0.0-5.0-0.0-3.0-1.0","","","","false","","","","","","","","","","null","","1228","","3","1","null","null","arrowright","[1,1,1,1]","","",""
"sailing-trial","14","130676","0.0-5.0-0.0-3.0-2.0","","","","false","","","","","","","","","","null","","1636.9999999999854","","2","0","null","null","arrowleft","[0,0,0,0]","","",""
"sailing-instructions","15","139472","0.0-5.0-0.0-4.0","","","","","","","","","","","","","","null","null","null","null","null","null","","","","","","",""
"sailing-comprehension","16","162464","0.0-5.0-0.0-5.0","","","","","","","","","","20833","","","","","","","","","","","","","","[""true"",""true"",""false"",""true""]","0",""
"sailing-instructions","17","230904","0.0-6.0-0.0-0.0","","","","","","","","","","","","","","null","null","null","null","null","null","","","","","","",""
"sailing-comprehension","18","254034","0.0-6.0-0.0-1.0","","","","","","","","","","21501","","","","","","","","","","","","","","[""true"",""false"",""true""]","0",""
"sailing-instructions","19","270105","0.0-7.0-0.0-0.0","","","","","","","","","","","","","","null","null","null","null","null","null","","","","","","",""
"sailing-trial","20","274462","0.0-7.0-0.0-1.0-0.0","","","","false","","","","","","","","","","null","","2033","","0","0","null","null","arrowup","[0.2,0.8,0.2,0.8]","","",""
"sailing-trial","21","278280","0.0-7.0-0.0-1.0-1.0","","","","false","","","","","","","","","","null","","1255","","1","1","null","null","arrowup","[0.2,0.8,0.2,0.8]","","",""
"sailing-trial","22","280977","0.0-7.0-0.0-1.0-2.0","","","","false","","","","","","","","","","null","","1126","","2","0","null","null","arrowup","[0.2,0.8,0.2,0.8]","","",""
"sailing-trial","23","284146","0.0-7.0-0.0-1.0-3.0","","","","false","","","","","","","","","","null","","1091.9999999999418","","3","1","null","null","arrowup","[0.2,0.8,0.2,0.8]","","",""
"sailing-comprehension","24","294096","0.0-7.0-0.0-2.0","","","","","","","","","","8060","","","","","","","","","","","","","","[""true""]","1",""
"sailing-instructions","25","312357","0.0-7.0-0.1-0.1","","","","","","","","","","","","","","null","null","null","null","null","null","","","","","","",""
"sailing-trial","26","317030","0.0-7.0-0.1-1.1-0.1","","","","false","","","","","","","","","","null","","2047","","0","1","null","null","arrowup","[0.2,0.8,0.2,0.8]","","",""
"sailing-trial","27","319470","0.0-7.0-0.1-1.1-1.1","","","","false","","","","","","","","","","null","","819","","1","0","null","null","arrowup","[0.2,0.8,0.2,0.8]","","",""
"sailing-trial","28","321989","0.0-7.0-0.1-1.1-2.1","","","","false","","","","","","","","","","null","","896","","2","0","null","null","arrowup","[0.2,0.8,0.2,0.8]","","",""
"sailing-trial","29","324581","0.0-7.0-0.1-1.1-3.1","","","","false","","","","","","","","","","null","","942","","3","0","null","null","arrowup","[0.2,0.8,0.2,0.8]","","",""
"sailing-comprehension","30","333659","0.0-7.0-0.1-2.1","","","","","","","","","","7960","","","","","","","","","","","","","","[""false""]","0",""
"sailing-instructions","31","347327","0.0-8.0-0.0-0.0","","","","","","","","","","","","","","null","null","null","null","null","null","","","","","","",""
"sailing-comprehension","32","352352","0.0-8.0-0.0-1.0","","","","","","","","","","3965","","","","","","","","","","","","","","[""true""]","0",""
"sailing-instructions","33","543314","0.0-9.0-0.0-0.0","","","","","","","","","","","","","","null","null","null","null","null","null","","","","","","",""
"sailing-trial","34","549871","0.0-9.0-0.0-1.0-0.0","","","","false","","","","","","","","","","2090","","362","","3","1","arrowright","1","arrowright","[0.2,0.8,0.2,0.8]","","",""
"sailing-trial","35","554692","0.0-9.0-0.0-1.0-1.0","","","","false","","","","","","","","","","1225","","175","","0","0","arrowleft","0","arrowleft","[0.2,0.8,0.2,0.8]","","",""
"sailing-trial","36","557615","0.0-9.0-0.0-1.0-2.0","","","","false","","","","","","","","","","null","","1264.0000000001164","","0","0","null","null","arrowup","[0.2,0.8,0.2,0.8]","","",""
"sailing-trial","37","562647","0.0-9.0-0.0-1.0-3.0","","","","false","","","","","","","","","","1263","","512","","3","0","arrowright","1","arrowright","[0.2,0.8,0.2,0.8]","","",""
"sailing-trial","38","566086","0.0-9.0-0.0-1.0-4.0","","","","false","","","","","","","","","","null","","1124","","3","1","null","null","arrowup","[0.2,0.8,0.2,0.8]","","",""
"sailing-trial","39","571613","0.0-9.0-0.0-1.0-5.0","","","","false","","","","","","","","","","872.9999999998836","","1105.0000000001164","","2","0","arrowright","1","arrowleft","[0.2,0.8,0.2,0.8]","","",""
"sailing-instructions","40","597785","0.0-10.0","","","","","","","","","","","","","","null","null","null","null","null","null","","","","","","",""
"sailing-trial","41","604512","0.0-11.0-0.0","","","","false","","","","","","","","","","3175","","319","","3","0","arrowright","1","arrowright","[0.85,0.15,0.675,0.325]","","",""
"sailing-trial","42","607796","0.0-11.0-1.0","","","","false","","","","","","","","","","null","","1212","","1","0","null","null","arrowup","[0.85,0.15,0.675,0.325]","","",""
"sailing-trial","43","612337","0.0-11.0-2.0","","","","false","","","","","","","","","","868","","63.000000000116415","","0","1","arrowleft","0","arrowleft","[0.85,0.15,0.675,0.325]","","",""
"sailing-trial","44","615321","0.0-11.0-3.0","","","","false","","","","","","","","","","null","","858","","2","1","null","null","arrowup","[0.85,0.15,0.675,0.325]","","",""
"sailing-trial","45","619739","0.0-11.0-4.0","","","","false","","","","","","","","","","909","","23","","0","1","arrowleft","0","arrowleft","[0.85,0.15,0.675,0.325]","","",""
"sailing-trial","46","622756","0.0-11.0-5.0","","","","false","","","","","","","","","","null","","931","","2","0","null","null","arrowup","[0.85,0.15,0.675,0.325]","","",""
"sailing-trial","47","627889","0.0-11.0-6.0","","","","false","","","","","","","","","","980","","680","","2","1","arrowright","1","arrowleft","[0.85,0.15,0.675,0.325]","","",""
"sailing-trial","48","630905","0.0-11.0-7.0","","","","false","","","","","","","","","","null","","924","","2","1","null","null","arrowup","[0.85,0.15,0.675,0.325]","","",""
"sailing-trial","49","636883","0.0-11.0-8.0","","","","false","","","","","","","","","","1429.0000000001164","","1171","","2","0","arrowright","1","arrowleft","[0.85,0.15,0.675,0.325]","","",""
"sailing-trial","50","640272","0.0-11.0-9.0","","","","false","","","","","","","","","","null","","1084","","0","1","null","null","arrowup","[0.85,0.15,0.675,0.325]","","",""
"sailing-trial","51","645937","0.0-11.0-10.0","","","","false","","","","","","","","","","1032.0000000001164","","1141.9999999998836","","0","1","arrowleft","0","arrowleft","[0.85,0.15,0.675,0.325]","","",""
"sailing-trial","52","648920","0.0-11.0-11.0","","","","false","","","","","","","","","","null","","1026.0000000001164","","3","0","null","null","arrowup","[0.85,0.15,0.675,0.325]","","",""
"sailing-trial","53","653522","0.0-11.0-12.0","","","","false","","","","","","","","","","1015.0000000001164","","44.000000000116415","","0","1","arrowleft","0","arrowleft","[0.85,0.15,0.675,0.325]","","",""
"sailing-trial","54","656227","0.0-11.0-13.0","","","","false","","","","","","","","","","null","","902","","1","0","null","null","arrowup","[0.85,0.15,0.675,0.325]","","",""
"sailing-trial","55","661156","0.0-11.0-14.0","","","","false","","","","","","","","","","902","","502","","0","1","arrowleft","0","arrowleft","[0.85,0.15,0.675,0.325]","","",""
"sailing-trial","56","664027","0.0-11.0-15.0","","","","false","","","","","","","","","","null","","736","","1","0","null","null","arrowup","[0.85,0.15,0.675,0.325]","","",""
"sailing-trial","57","668473","0.0-11.0-16.0","","","","false","","","","","","","","","","869","","164","","2","1","arrowright","1","arrowleft","[0.675,0.325,0.85,0.15]","","",""
"sailing-trial","58","671239","0.0-11.0-17.0","","","","false","","","","","","","","","","null","","637","","2","1","null","null","arrowup","[0.675,0.325,0.85,0.15]","","",""
"sailing-trial","59","675523","0.0-11.0-18.0","","","","false","","","","","","","","","","687.9999999998836","","108","","2","1","arrowright","1","arrowleft","[0.675,0.325,0.85,0.15]","","",""
"sailing-trial","60","678240","0.0-11.0-19.0","","","","false","","","","","","","","","","null","","670","","0","1","null","null","arrowup","[0.675,0.325,0.85,0.15]","","",""
"sailing-trial","61","683006","0.0-11.0-20.0","","","","false","","","","","","","","","","939","","383","","2","1","arrowright","1","arrowleft","[0.675,0.325,0.85,0.15]","","",""
"sailing-trial","62","686002","0.0-11.0-21.0","","","","false","","","","","","","","","","null","","813","","1","0","null","null","arrowup","[0.675,0.325,0.85,0.15]","","",""
"sailing-trial","63","691940","0.0-11.0-22.0","","","","false","","","","","","","","","","1073","","1409","","2","1","arrowright","1","arrowleft","[0.675,0.325,0.85,0.15]","","",""
"sailing-trial","64","694500","0.0-11.0-23.0","","","","false","","","","","","","","","","null","","761","","1","0","null","null","arrowup","[0.675,0.325,0.85,0.15]","","",""
"sailing-trial","65","699640","0.0-11.0-24.0","","","","false","","","","","","","","","","1391","","240","","2","1","arrowright","1","arrowleft","[0.675,0.325,0.85,0.15]","","",""
"sailing-trial","66","702441","0.0-11.0-25.0","","","","false","","","","","","","","","","null","","737","","0","1","null","null","arrowup","[0.675,0.325,0.85,0.15]","","",""
"sailing-trial","67","707440","0.0-11.0-26.0","","","","false","","","","","","","","","","1414","","125","","2","1","arrowright","1","arrowleft","[0.675,0.325,0.85,0.15]","","",""
"sailing-trial","68","709991","0.0-11.0-27.0","","","","false","","","","","","","","","","null","","906","","3","0","null","null","arrowup","[0.675,0.325,0.85,0.15]","","",""
"sailing-trial","69","715524","0.0-11.0-28.0","","","","false","","","","","","","","","","1039","","962","","0","1","arrowleft","0","arrowleft","[0.675,0.325,0.85,0.15]","","",""
"sailing-trial","70","718241","0.0-11.0-29.0","","","","false","","","","","","","","","","null","","644","","0","1","null","null","arrowup","[0.675,0.325,0.85,0.15]","","",""
"sailing-trial","71","723741","0.0-11.0-30.0","","","","false","","","","","","","","","","680","","1081.0000000001164","","0","1","arrowleft","0","arrowleft","[0.675,0.325,0.85,0.15]","","",""
"sailing-trial","72","726162","0.0-11.0-31.0","","","","false","","","","","","","","","","null","","706","","0","0","null","null","arrowup","[0.675,0.325,0.85,0.15]","","",""
"sailing-trial","73","731392","0.0-11.0-32.0","","","","false","","","","","","","","","","876.9999999998836","","924","","0","1","arrowleft","0","arrowleft","[0.675,0.325,0.85,0.15]","","",""
"sailing-trial","74","734630","0.0-11.0-33.0","","","","false","","","","","","","","","","null","","726","","1","0","null","null","arrowup","[0.675,0.325,0.85,0.15]","","",""
"sailing-trial","75","738956","0.0-11.0-34.0","","","","false","","","","","","","","","","738","","398","","2","0","arrowright","1","arrowleft","[0.325,0.675,0.15,0.85]","","",""
"sailing-trial","76","742058","0.0-11.0-35.0","","","","false","","","","","","","","","","null","","968","","0","1","null","null","arrowup","[0.325,0.675,0.15,0.85]","","",""
"sailing-trial","77","746552","0.0-11.0-36.0","","","","false","","","","","","","","","","933","","186","","2","0","arrowright","1","arrowleft","[0.325,0.675,0.15,0.85]","","",""
"sailing-trial","78","749809","0.0-11.0-37.0","","","","false","","","","","","","","","","null","","1172","","1","1","null","null","arrowup","[0.325,0.675,0.15,0.85]","","",""
"sailing-trial","79","755791","0.0-11.0-38.0","","","","false","","","","","","","","","","1221","","1114","","3","1","arrowright","1","arrowright","[0.325,0.675,0.15,0.85]","","",""
"sailing-trial","80","758475","0.0-11.0-39.0","","","","false","","","","","","","","","","null","","634","","0","1","null","null","arrowup","[0.325,0.675,0.15,0.85]","","",""
"sailing-trial","81","763726","0.0-11.0-40.0","","","","false","","","","","","","","","","807","","1026","","3","1","arrowright","1","arrowright","[0.325,0.675,0.15,0.85]","","",""
"sailing-trial","82","767536","0.0-11.0-41.0","","","","false","","","","","","","","","","null","","809","","2","0","null","null","arrowup","[0.325,0.675,0.15,0.85]","","",""
"sailing-trial","83","773209","0.0-11.0-42.0","","","","false","","","","","","","","","","1010","","1199","","3","1","arrowright","1","arrowright","[0.325,0.675,0.15,0.85]","","",""
"sailing-trial","84","775826","0.0-11.0-43.0","","","","false","","","","","","","","","","null","","883.0000000001164","","2","0","null","null","arrowup","[0.325,0.675,0.15,0.85]","","",""
"sailing-trial","85","781833","0.0-11.0-44.0","","","","false","","","","","","","","","","951","","966","","0","0","arrowleft","0","arrowleft","[0.325,0.675,0.15,0.85]","","",""
"sailing-trial","86","785043","0.0-11.0-45.0","","","","false","","","","","","","","","","null","","1101","","1","1","null","null","arrowup","[0.325,0.675,0.15,0.85]","","",""
"sailing-trial","87","789243","0.0-11.0-46.0","","","","false","","","","","","","","","","624","","140","","1","1","arrowleft","0","arrowright","[0.325,0.675,0.15,0.85]","","",""
"sailing-trial","88","792409","0.0-11.0-47.0","","","","false","","","","","","","","","","null","","1380","","1","0","null","null","arrowup","[0.325,0.675,0.15,0.85]","","",""
"sailing-trial","89","797920","0.0-11.0-48.0","","","","false","","","","","","","","","","1020","","1271","","1","0","arrowleft","0","arrowright","[0.325,0.675,0.15,0.85]","","",""
"sailing-trial","90","801060","0.0-11.0-49.0","","","","false","","","","","","","","","","null","","1066","","3","1","null","null","arrowup","[0.325,0.675,0.15,0.85]","","",""
"sailing-trial","91","806544","0.0-11.0-50.0","","","","false","","","","","","","","","","1271","","792","","3","1","arrowright","1","arrowright","[0.325,0.675,0.15,0.85]","","",""
"sailing-trial","92","809643","0.0-11.0-51.0","","","","false","","","","","","","","","","null","","960","","0","1","null","null","arrowup","[0.325,0.675,0.15,0.85]","","",""
"sailing-trial","93","815544","0.0-11.0-52.0","","","","false","","","","","","","","","","1160","","1271.9999999998836","","3","1","arrowright","1","arrowright","[0.325,0.675,0.15,0.85]","","",""
"sailing-trial","94","819132","0.0-11.0-53.0","","","","false","","","","","","","","","","null","","1849","","0","0","null","null","arrowup","[0.325,0.675,0.15,0.85]","","",""
"sailing-trial","95","823767","0.0-11.0-54.0","","","","false","","","","","","","","","","1198.9999999998836","","337","","0","0","arrowleft","0","arrowleft","[0.325,0.675,0.15,0.85]","","",""
"sailing-trial","96","826693","0.0-11.0-55.0","","","","false","","","","","","","","","","null","","862.9999999998836","","0","1","null","null","arrowup","[0.325,0.675,0.15,0.85]","","",""
"sailing-trial","97","831610","0.0-11.0-56.0","","","","false","","","","","","","","","","1029","","448","","3","1","arrowright","1","arrowright","[0.325,0.675,0.15,0.85]","","",""
"sailing-trial","98","834073","0.0-11.0-57.0","","","","false","","","","","","","","","","null","","801.0000000001164","","0","0","null","null","arrowup","[0.325,0.675,0.15,0.85]","","",""
"sailing-trial","99","839631","0.0-11.0-58.0","","","","false","","","","","","","","","","1779","","403.0000000001164","","0","0","arrowleft","0","arrowleft","[0.15,0.85,0.325,0.675]","","",""
"sailing-trial","100","842611","0.0-11.0-59.0","","","","false","","","","","","","","","","null","","871","","2","1","null","null","arrowup","[0.15,0.85,0.325,0.675]","","",""
"sailing-trial","101","846672","0.0-11.0-60.0","","","","false","","","","","","","","","","994","","41","","3","0","arrowright","1","arrowright","[0.15,0.85,0.325,0.675]","","",""
"sailing-trial","102","849359","0.0-11.0-61.0","","","","false","","","","","","","","","","null","","973.9999999998836","","1","0","null","null","arrowup","[0.15,0.85,0.325,0.675]","","",""
"sailing-trial","103","854982","0.0-11.0-62.0","","","","false","","","","","","","","","","1341.9999999998836","","1074","","2","0","arrowright","1","arrowleft","[0.15,0.85,0.325,0.675]","","",""
"sailing-trial","104","857412","0.0-11.0-63.0","","","","false","","","","","","","","","","null","","851.9999999998836","","0","0","null","null","arrowup","[0.15,0.85,0.325,0.675]","","",""
"sailing-trial","105","863196","0.0-11.0-64.0","","","","false","","","","","","","","","","944","","1406","","3","1","arrowright","1","arrowright","[0.15,0.85,0.325,0.675]","","",""
"sailing-trial","106","866595","0.0-11.0-65.0","","","","false","","","","","","","","","","null","","745","","1","1","null","null","arrowup","[0.15,0.85,0.325,0.675]","","",""
"sailing-trial","107","873361","0.0-11.0-66.0","","","","false","","","","","","","","","","1817","","1520.0000000001164","","0","0","arrowleft","0","arrowleft","[0.15,0.85,0.325,0.675]","","",""
"sailing-trial","108","876849","0.0-11.0-67.0","","","","false","","","","","","","","","","null","","1270","","3","0","null","null","arrowup","[0.15,0.85,0.325,0.675]","","",""
"sailing-trial","109","881728","0.0-11.0-68.0","","","","false","","","","","","","","","","792","","150","","3","1","arrowright","1","arrowright","[0.15,0.85,0.325,0.675]","","",""
"sailing-trial","110","884779","0.0-11.0-69.0","","","","false","","","","","","","","","","null","","558","","2","0","null","null","arrowup","[0.15,0.85,0.325,0.675]","","",""
"sailing-trial","111","890079","0.0-11.0-70.0","","","","false","","","","","","","","","","1358","","342","","3","1","arrowright","1","arrowright","[0.15,0.85,0.325,0.675]","","",""
"sailing-trial","112","893232","0.0-11.0-71.0","","","","false","","","","","","","","","","null","","674","","2","1","null","null","arrowup","[0.15,0.85,0.325,0.675]","","",""
"sailing-trial","113","898898","0.0-11.0-72.0","","","","false","","","","","","","","","","1155","","1095","","3","1","arrowright","1","arrowright","[0.15,0.85,0.325,0.675]","","",""
"sailing-trial","114","902648","0.0-11.0-73.0","","","","false","","","","","","","","","","null","","1698","","3","1","null","null","arrowup","[0.15,0.85,0.325,0.675]","","",""
"sailing-trial","115","908231","0.0-11.0-74.0","","","","false","","","","","","","","","","927.0000000001164","","1199","","3","1","arrowright","1","arrowright","[0.15,0.85,0.325,0.675]","","",""
"sailing-trial","116","910769","0.0-11.0-75.0","","","","false","","","","","","","","","","null","","855","","3","0","null","null","arrowup","[0.15,0.85,0.325,0.675]","","",""
"sailing-trial","117","915582","0.0-11.0-76.0","","","","false","","","","","","","","","","1118","","17","","3","1","arrowright","1","arrowright","[0.15,0.85,0.325,0.675]","","",""
"sailing-trial","118","918565","0.0-11.0-77.0","","","","false","","","","","","","","","","null","","853","","3","1","null","null","arrowup","[0.15,0.85,0.325,0.675]","","",""
"sailing-trial","119","922771","0.0-11.0-78.0","","","","false","","","","","","","","","","1058","","84","","3","0","arrowright","1","arrowright","[0.325,0.675,0.15,0.85]","","",""
"sailing-trial","120","925699","0.0-11.0-79.0","","","","false","","","","","","","","","","null","","853","","3","1","null","null","arrowup","[0.325,0.675,0.15,0.85]","","",""
"sailing-trial","121","931517","0.0-11.0-80.0","","","","false","","","","","","","","","","989","","814.9999999998836","","3","0","arrowright","1","arrowright","[0.325,0.675,0.15,0.85]","","",""
"sailing-trial","122","934041","0.0-11.0-81.0","","","","false","","","","","","","","","","null","","676","","2","0","null","null","arrowup","[0.325,0.675,0.15,0.85]","","",""
"sailing-trial","123","938567","0.0-11.0-82.0","","","","false","","","","","","","","","","850","","6","","0","1","arrowleft","0","arrowleft","[0.325,0.675,0.15,0.85]","","",""
"sailing-trial","124","941599","0.0-11.0-83.0","","","","false","","","","","","","","","","null","","659.9999999998836","","3","1","null","null","arrowup","[0.325,0.675,0.15,0.85]","","",""
"sailing-trial","125","947524","0.0-11.0-84.0","","","","false","","","","","","","","","","1244","","1098.0000000001164","","0","0","arrowleft","0","arrowleft","[0.325,0.675,0.15,0.85]","","",""
"sailing-trial","126","950047","0.0-11.0-85.0","","","","false","","","","","","","","","","null","","873","","1","0","null","null","arrowup","[0.325,0.675,0.15,0.85]","","",""
"sailing-trial","127","955632","0.0-11.0-86.0","","","","false","","","","","","","","","","1593.0000000001164","","602","","0","1","arrowleft","0","arrowleft","[0.325,0.675,0.15,0.85]","","",""
"sailing-trial","128","958467","0.0-11.0-87.0","","","","false","","","","","","","","","","null","","611","","0","1","null","null","arrowup","[0.325,0.675,0.15,0.85]","","",""
"sailing-trial","129","963377","0.0-11.0-88.0","","","","false","","","","","","","","","","1466","","305.9999999998836","","0","0","arrowleft","0","arrowleft","[0.325,0.675,0.15,0.85]","","",""
"sailing-trial","130","966368","0.0-11.0-89.0","","","","false","","","","","","","","","","null","","928","","2","1","null","null","arrowup","[0.325,0.675,0.15,0.85]","","",""
"sailing-trial","131","971924","0.0-11.0-90.0","","","","false","","","","","","","","","","1443","","1053","","3","0","arrowright","1","arrowright","[0.325,0.675,0.15,0.85]","","",""
"sailing-trial","132","974681","0.0-11.0-91.0","","","","false","","","","","","","","","","null","","978","","0","0","null","null","arrowup","[0.325,0.675,0.15,0.85]","","",""
"sailing-trial","133","979584","0.0-11.0-92.0","","","","false","","","","","","","","","","1157","","204","","3","1","arrowright","1","arrowright","[0.325,0.675,0.15,0.85]","","",""
"sailing-trial","134","982583","0.0-11.0-93.0","","","","false","","","","","","","","","","null","","772","","1","1","null","null","arrowup","[0.325,0.675,0.15,0.85]","","",""
"sailing-trial","135","987777","0.0-11.0-94.0","","","","false","","","","","","","","","","1018.0000000001164","","1139","","3","0","arrowright","1","arrowright","[0.85,0.15,0.675,0.325]","","",""
"sailing-trial","136","990541","0.0-11.0-95.0","","","","false","","","","","","","","","","null","","979","","1","0","null","null","arrowup","[0.85,0.15,0.675,0.325]","","",""
"sailing-trial","137","994996","0.0-11.0-96.0","","","","false","","","","","","","","","","1326.0000000001164","","194","","3","0","arrowright","1","arrowright","[0.85,0.15,0.675,0.325]","","",""
"sailing-trial","138","998169","0.0-11.0-97.0","","","","false","","","","","","","","","","null","","1008","","0","1","null","null","arrowup","[0.85,0.15,0.675,0.325]","","",""
"sailing-trial","139","1003534","0.0-11.0-98.0","","","","false","","","","","","","","","","1023","","1202","","3","0","arrowright","1","arrowright","[0.85,0.15,0.675,0.325]","","",""
"sailing-trial","140","1006000","0.0-11.0-99.0","","","","false","","","","","","","","","","null","","908.0000000001164","","0","0","null","null","arrowup","[0.85,0.15,0.675,0.325]","","",""
"sailing-trial","141","1011403","0.0-11.0-100.0","","","","false","","","","","","","","","","1116","","1326","","3","0","arrowright","1","arrowright","[0.85,0.15,0.675,0.325]","","",""
"sailing-trial","142","1014379","0.0-11.0-101.0","","","","false","","","","","","","","","","null","","1327","","1","0","null","null","arrowup","[0.85,0.15,0.675,0.325]","","",""
"sailing-trial","143","1020069","0.0-11.0-102.0","","","","false","","","","","","","","","","1262.0000000001164","","996","","0","1","arrowleft","0","arrowleft","[0.85,0.15,0.675,0.325]","","",""
"sailing-trial","144","1022571","0.0-11.0-103.0","","","","false","","","","","","","","","","null","","775.0000000001164","","1","0","null","null","arrowup","[0.85,0.15,0.675,0.325]","","",""
"sailing-trial","145","1027070","0.0-11.0-104.0","","","","false","","","","","","","","","","1186","","19.999999999883585","","0","0","arrowleft","0","arrowleft","[0.85,0.15,0.675,0.325]","","",""
"sailing-trial","146","1030051","0.0-11.0-105.0","","","","false","","","","","","","","","","null","","1158.0000000001164","","1","0","null","null","arrowup","[0.85,0.15,0.675,0.325]","","",""
"sailing-trial","147","1036036","0.0-11.0-106.0","","","","false","","","","","","","","","","994.0000000001164","","1448.9999999998836","","1","1","arrowleft","0","arrowright","[0.85,0.15,0.675,0.325]","","",""
"sailing-trial","148","1038549","0.0-11.0-107.0","","","","false","","","","","","","","","","null","","969","","1","0","null","null","arrowup","[0.85,0.15,0.675,0.325]","","",""
"sailing-trial","149","1043259","0.0-11.0-108.0","","","","false","","","","","","","","","","1158.0000000001164","","652.9999999997672","","1","0","arrowleft","0","arrowright","[0.85,0.15,0.675,0.325]","","",""
"sailing-trial","150","1046662","0.0-11.0-109.0","","","","false","","","","","","","","","","null","","1157.0000000001164","","3","0","null","null","arrowup","[0.85,0.15,0.675,0.325]","","",""
"sailing-trial","151","1052367","0.0-11.0-110.0","","","","false","","","","","","","","","","784.0000000001164","","1629","","3","0","arrowright","1","arrowright","[0.85,0.15,0.675,0.325]","","",""
"sailing-trial","152","1055084","0.0-11.0-111.0","","","","false","","","","","","","","","","null","","1029","","3","0","null","null","arrowup","[0.85,0.15,0.675,0.325]","","",""
"sailing-trial","153","1060370","0.0-11.0-112.0","","","","false","","","","","","","","","","988.0000000002328","","1003","","2","0","arrowright","1","arrowleft","[0.15,0.85,0.325,0.675]","","",""
"sailing-trial","154","1063151","0.0-11.0-113.0","","","","false","","","","","","","","","","null","","1052","","0","0","null","null","arrowup","[0.15,0.85,0.325,0.675]","","",""
"sailing-trial","155","1067421","0.0-11.0-114.0","","","","false","","","","","","","","","","918","","132","","2","0","arrowright","1","arrowleft","[0.15,0.85,0.325,0.675]","","",""
"sailing-trial","156","1070669","0.0-11.0-115.0","","","","false","","","","","","","","","","null","","1033","","3","1","null","null","arrowup","[0.15,0.85,0.325,0.675]","","",""
"sailing-trial","157","1077136","0.0-11.0-116.0","","","","false","","","","","","","","","","1556.9999999997672","","1482","","3","1","arrowright","1","arrowright","[0.15,0.85,0.325,0.675]","","",""
"sailing-trial","158","1081452","0.0-11.0-117.0","","","","false","","","","","","","","","","null","","1280","","0","0","null","null","arrowup","[0.15,0.85,0.325,0.675]","","",""
"sailing-trial","159","1086770","0.0-11.0-118.0","","","","false","","","","","","","","","","1139","","657","","3","1","arrowright","1","arrowright","[0.15,0.85,0.325,0.675]","","",""
"sailing-trial","160","1089555","0.0-11.0-119.0","","","","false","","","","","","","","","","null","","907","","0","0","null","null","arrowup","[0.15,0.85,0.325,0.675]","","",""
"sailing-trial","161","1095704","0.0-11.0-120.0","","","","false","","","","","","","","","","2283","","377","","3","1","arrowright","1","arrowright","[0.15,0.85,0.325,0.675]","","",""
"sailing-trial","162","1098442","0.0-11.0-121.0","","","","false","","","","","","","","","","null","","1065","","2","0","null","null","arrowup","[0.15,0.85,0.325,0.675]","","",""
"sailing-trial","163","1103712","0.0-11.0-122.0","","","","false","","","","","","","","","","1236","","851","","0","0","arrowleft","0","arrowleft","[0.15,0.85,0.325,0.675]","","",""
"sailing-trial","164","1107004","0.0-11.0-123.0","","","","false","","","","","","","","","","null","","1063","","3","1","null","null","arrowup","[0.15,0.85,0.325,0.675]","","",""
"sailing-trial","165","1111872","0.0-11.0-124.0","","","","false","","","","","","","","","","1224.0000000002328","","136","","1","1","arrowleft","0","arrowright","[0.15,0.85,0.325,0.675]","","",""
"sailing-trial","166","1114736","0.0-11.0-125.0","","","","false","","","","","","","","","","null","","785","","0","1","null","null","arrowup","[0.15,0.85,0.325,0.675]","","",""
"sailing-trial","167","1120439","0.0-11.0-126.0","","","","false","","","","","","","","","","1148","","1458","","0","0","arrowleft","0","arrowleft","[0.15,0.85,0.325,0.675]","","",""
"sailing-trial","168","1123671","0.0-11.0-127.0","","","","false","","","","","","","","","","null","","1186.9999999997672","","1","1","null","null","arrowup","[0.15,0.85,0.325,0.675]","","",""
"sailing-trial","169","1129972","0.0-11.0-128.0","","","","false","","","","","","","","","","1222.9999999997672","","1622.9999999997672","","3","1","arrowright","1","arrowright","[0.85,0.15,0.675,0.325]","","",""
"sailing-trial","170","1132898","0.0-11.0-129.0","","","","false","","","","","","","","","","null","","1102","","1","0","null","null","arrowup","[0.85,0.15,0.675,0.325]","","",""
"sailing-trial","171","1137838","0.0-11.0-130.0","","","","false","","","","","","","","","","1032","","439","","3","1","arrowright","1","arrowright","[0.85,0.15,0.675,0.325]","","",""
"sailing-trial","172","1140838","0.0-11.0-131.0","","","","false","","","","","","","","","","null","","925","","2","1","null","null","arrowup","[0.85,0.15,0.675,0.325]","","",""
"sailing-trial","173","1145492","0.0-11.0-132.0","","","","false","","","","","","","","","","1118","","260.99999999976717","","3","0","arrowright","1","arrowright","[0.85,0.15,0.675,0.325]","","",""
"sailing-trial","174","1148522","0.0-11.0-133.0","","","","false","","","","","","","","","","null","","876","","3","1","null","null","arrowup","[0.85,0.15,0.675,0.325]","","",""
"sailing-trial","175","1153138","0.0-11.0-134.0","","","","false","","","","","","","","","","1098","","151","","2","1","arrowright","1","arrowleft","[0.85,0.15,0.675,0.325]","","",""
"sailing-trial","176","1156040","0.0-11.0-135.0","","","","false","","","","","","","","","","null","","862","","3","1","null","null","arrowup","[0.85,0.15,0.675,0.325]","","",""
"sailing-trial","177","1162623","0.0-11.0-136.0","","","","false","","","","","","","","","","1388","","1749","","3","1","arrowright","1","arrowright","[0.85,0.15,0.675,0.325]","","",""
"sailing-trial","178","1165372","0.0-11.0-137.0","","","","false","","","","","","","","","","null","","666","","2","1","null","null","arrowup","[0.85,0.15,0.675,0.325]","","",""
"sailing-trial","179","1170774","0.0-11.0-138.0","","","","false","","","","","","","","","","1441","","444","","3","1","arrowright","1","arrowright","[0.85,0.15,0.675,0.325]","","",""
"sailing-trial","180","1173422","0.0-11.0-139.0","","","","false","","","","","","","","","","null","","698","","1","0","null","null","arrowup","[0.85,0.15,0.675,0.325]","","",""
"sailing-trial","181","1177775","0.0-11.0-140.0","","","","false","","","","","","","","","","1574","","68","","3","0","arrowright","1","arrowright","[0.85,0.15,0.675,0.325]","","",""
"sailing-trial","182","1180808","0.0-11.0-141.0","","","","false","","","","","","","","","","null","","972","","2","1","null","null","arrowup","[0.85,0.15,0.675,0.325]","","",""
"sailing-trial","183","1185240","0.0-11.0-142.0","","","","false","","","","","","","","","","746.9999999997672","","109","","0","1","arrowleft","0","arrowleft","[0.85,0.15,0.675,0.325]","","",""
"sailing-trial","184","1188273","0.0-11.0-143.0","","","","false","","","","","","","","","","null","","985","","2","1","null","null","arrowup","[0.85,0.15,0.675,0.325]","","",""
"sailing-trial","185","1192990","0.0-11.0-144.0","","","","false","","","","","","","","","","1119","","194","","0","1","arrowleft","0","arrowleft","[0.675,0.325,0.85,0.15]","","",""
"sailing-trial","186","1195840","0.0-11.0-145.0","","","","false","","","","","","","","","","null","","725.9999999997672","","2","1","null","null","arrowup","[0.675,0.325,0.85,0.15]","","",""
"sailing-trial","187","1201390","0.0-11.0-146.0","","","","false","","","","","","","","","","1222","","853","","0","1","arrowleft","0","arrowleft","[0.675,0.325,0.85,0.15]","","",""
"sailing-trial","188","1204341","0.0-11.0-147.0","","","","false","","","","","","","","","","null","","879.0000000002328","","3","0","null","null","arrowup","[0.675,0.325,0.85,0.15]","","",""
"sailing-trial","189","1209566","0.0-11.0-148.0","","","","false","","","","","","","","","","1247","","1074","","0","0","arrowleft","0","arrowleft","[0.675,0.325,0.85,0.15]","","",""
"sailing-trial","190","1212077","0.0-11.0-149.0","","","","false","","","","","","","","","","null","","1002","","1","0","null","null","arrowup","[0.675,0.325,0.85,0.15]","","",""
"sailing-trial","191","1216806","0.0-11.0-150.0","","","","false","","","","","","","","","","1055","","569.9999999997672","","3","0","arrowright","1","arrowright","[0.675,0.325,0.85,0.15]","","",""
"sailing-trial","192","1219758","0.0-11.0-151.0","","","","false","","","","","","","","","","null","","885","","2","1","null","null","arrowup","[0.675,0.325,0.85,0.15]","","",""
"sailing-trial","193","1225807","0.0-11.0-152.0","","","","false","","","","","","","","","","2041.0000000002328","","920","","3","0","arrowright","1","arrowright","[0.675,0.325,0.85,0.15]","","",""
"sailing-trial","194","1228641","0.0-11.0-153.0","","","","false","","","","","","","","","","null","","781.0000000002328","","2","1","null","null","arrowup","[0.675,0.325,0.85,0.15]","","",""
"sailing-trial","195","1235324","0.0-11.0-154.0","","","","false","","","","","","","","","","1726","","1298","","0","1","arrowleft","0","arrowleft","[0.675,0.325,0.85,0.15]","","",""
"sailing-trial","196","1238173","0.0-11.0-155.0","","","","false","","","","","","","","","","null","","972","","3","0","null","null","arrowup","[0.675,0.325,0.85,0.15]","","",""
"sailing-trial","197","1243875","0.0-11.0-156.0","","","","false","","","","","","","","","","1398","","779","","0","1","arrowleft","0","arrowleft","[0.675,0.325,0.85,0.15]","","",""
"sailing-trial","198","1246792","0.0-11.0-157.0","","","","false","","","","","","","","","","null","","829","","2","1","null","null","arrowup","[0.675,0.325,0.85,0.15]","","",""
"sailing-trial","199","1252531","0.0-11.0-158.0","","","","false","","","","","","","","","","1598","","975","","0","0","arrowleft","0","arrowleft","[0.675,0.325,0.85,0.15]","","",""
"sailing-trial","200","1255033","0.0-11.0-159.0","","","","false","","","","","","","","","","null","","836","","1","0","null","null","arrowup","[0.675,0.325,0.85,0.15]","","",""
"sailing-trial","201","1260406","0.0-11.0-160.0","","","","false","","","","","","","","","","1404","","892.0000000002328","","3","0","arrowright","1","arrowright","[0.675,0.325,0.85,0.15]","","",""
"sailing-trial","202","1263216","0.0-11.0-161.0","","","","false","","","","","","","","","","null","","1207.9999999997672","","3","0","null","null","arrowup","[0.675,0.325,0.85,0.15]","","",""
"sailing-trial","203","1267986","0.0-11.0-162.0","","","","false","","","","","","","","","","1349","","532.0000000002328","","3","0","arrowright","1","arrowright","[0.85,0.15,0.675,0.325]","","",""
"sailing-trial","204","1270810","0.0-11.0-163.0","","","","false","","","","","","","","","","null","","1013","","3","0","null","null","arrowup","[0.85,0.15,0.675,0.325]","","",""
"sailing-trial","205","1275275","0.0-11.0-164.0","","","","false","","","","","","","","","","857.9999999997672","","197","","2","1","arrowright","1","arrowleft","[0.85,0.15,0.675,0.325]","","",""
"sailing-trial","206","1279591","0.0-11.0-165.0","","","","false","","","","","","","","","","null","","1285.0000000002328","","2","0","null","null","arrowup","[0.85,0.15,0.675,0.325]","","",""
"sailing-trial","207","1284392","0.0-11.0-166.0","","","","false","","","","","","","","","","1375","","21","","2","1","arrowright","1","arrowleft","[0.85,0.15,0.675,0.325]","","",""
"sailing-trial","208","1287860","0.0-11.0-167.0","","","","false","","","","","","","","","","null","","1504.0000000002328","","2","0","null","null","arrowup","[0.85,0.15,0.675,0.325]","","",""
"sailing-trial","209","1293794","0.0-11.0-168.0","","","","false","","","","","","","","","","1623","","660","","2","1","arrowright","1","arrowleft","[0.85,0.15,0.675,0.325]","","",""
"sailing-trial","210","1296778","0.0-11.0-169.0","","","","false","","","","","","","","","","null","","810","","1","1","null","null","arrowup","[0.85,0.15,0.675,0.325]","","",""
"sailing-trial","211","1302344","0.0-11.0-170.0","","","","false","","","","","","","","","","1830.0000000002328","","288","","2","1","arrowright","1","arrowleft","[0.85,0.15,0.675,0.325]","","",""
"sailing-trial","212","1305294","0.0-11.0-171.0","","","","false","","","","","","","","","","null","","829","","3","1","null","null","arrowup","[0.85,0.15,0.675,0.325]","","",""
"sailing-trial","213","1311494","0.0-11.0-172.0","","","","false","","","","","","","","","","1506","","1279","","2","1","arrowright","1","arrowleft","[0.85,0.15,0.675,0.325]","","",""
"sailing-trial","214","1314254","0.0-11.0-173.0","","","","false","","","","","","","","","","null","","847","","2","0","null","null","arrowup","[0.85,0.15,0.675,0.325]","","",""
"sailing-trial","215","1319011","0.0-11.0-174.0","","","","false","","","","","","","","","","1325","","259","","2","1","arrowright","1","arrowleft","[0.85,0.15,0.675,0.325]","","",""
"sailing-trial","216","1321693","0.0-11.0-175.0","","","","false","","","","","","","","","","null","","531","","0","1","null","null","arrowup","[0.85,0.15,0.675,0.325]","","",""
"sailing-trial","217","1326701","0.0-11.0-176.0","","","","false","","","","","","","","","","1944","","306","","2","0","arrowright","1","arrowleft","[0.85,0.15,0.675,0.325]","","",""
"sailing-trial","218","1329777","0.0-11.0-177.0","","","","false","","","","","","","","","","null","","986.0000000002328","","0","1","null","null","arrowup","[0.85,0.15,0.675,0.325]","","",""
"sailing-trial","219","1335794","0.0-11.0-178.0","","","","false","","","","","","","","","","2652","","44","","2","1","arrowright","1","arrowleft","[0.85,0.15,0.675,0.325]","","",""
"sailing-trial","220","1338511","0.0-11.0-179.0","","","","false","","","","","","","","","","null","","616","","0","1","null","null","arrowup","[0.85,0.15,0.675,0.325]","","",""
"sailing-trial","221","1343477","0.0-11.0-180.0","","","","false","","","","","","","","","","1056","","521","","2","1","arrowright","1","arrowleft","[0.675,0.325,0.85,0.15]","","",""
"sailing-trial","222","1345726","0.0-11.0-181.0","","","","false","","","","","","","","","","null","","699.0000000002328","","0","0","null","null","arrowup","[0.675,0.325,0.85,0.15]","","",""
"sailing-trial","223","1351185","0.0-11.0-182.0","","","","false","","","","","","","","","","1001","","1119.0000000002328","","0","0","arrowleft","0","arrowleft","[0.675,0.325,0.85,0.15]","","",""
"sailing-trial","224","1353773","0.0-11.0-183.0","","","","false","","","","","","","","","","null","","815","","3","0","null","null","arrowup","[0.675,0.325,0.85,0.15]","","",""
"sailing-trial","225","1360594","0.0-11.0-184.0","","","","false","","","","","","","","","","2028","","1346","","0","1","arrowleft","0","arrowleft","[0.675,0.325,0.85,0.15]","","",""
"sailing-trial","226","1362963","0.0-11.0-185.0","","","","false","","","","","","","","","","null","","795","","3","0","null","null","arrowup","[0.675,0.325,0.85,0.15]","","",""
"sailing-trial","227","1368565","0.0-11.0-186.0","","","","false","","","","","","","","","","1223","","1205","","0","0","arrowleft","0","arrowleft","[0.675,0.325,0.85,0.15]","","",""
"sailing-trial","228","1370973","0.0-11.0-187.0","","","","false","","","","","","","","","","null","","817","","3","0","null","null","arrowup","[0.675,0.325,0.85,0.15]","","",""
"sailing-trial","229","1375580","0.0-11.0-188.0","","","","false","","","","","","","","","","1364","","77","","2","1","arrowright","1","arrowleft","[0.675,0.325,0.85,0.15]","","",""
"sailing-trial","230","1378280","0.0-11.0-189.0","","","","false","","","","","","","","","","null","","603.9999999997672","","0","1","null","null","arrowup","[0.675,0.325,0.85,0.15]","","",""
"sailing-trial","231","1385080","0.0-11.0-190.0","","","","false","","","","","","","","","","1917.0000000002328","","1397","","2","1","arrowright","1","arrowleft","[0.675,0.325,0.85,0.15]","","",""
"sailing-trial","232","1388264","0.0-11.0-191.0","","","","false","","","","","","","","","","null","","948","","2","1","null","null","arrowup","[0.675,0.325,0.85,0.15]","","",""
"sailing-trial","233","1393646","0.0-11.0-192.0","","","","false","","","","","","","","","","1331","","320","","2","1","arrowright","1","arrowleft","[0.675,0.325,0.85,0.15]","","",""
"sailing-trial","234","1396496","0.0-11.0-193.0","","","","false","","","","","","","","","","null","","849","","0","1","null","null","arrowup","[0.675,0.325,0.85,0.15]","","",""
"sailing-trial","235","1402963","0.0-11.0-194.0","","","","false","","","","","","","","","","1574.9999999997672","","1175","","2","1","arrowright","1","arrowleft","[0.675,0.325,0.85,0.15]","","",""
"sailing-trial","236","1406695","0.0-11.0-195.0","","","","false","","","","","","","","","","null","","2101.000000000233","","3","0","null","null","arrowup","[0.675,0.325,0.85,0.15]","","",""
"sailing-trial","237","1413113","0.0-11.0-196.0","","","","false","","","","","","","","","","1642","","1198","","0","1","arrowleft","0","arrowleft","[0.675,0.325,0.85,0.15]","","",""
"sailing-trial","238","1416014","0.0-11.0-197.0","","","","false","","","","","","","","","","null","","1201.0000000002328","","3","0","null","null","arrowup","[0.675,0.325,0.85,0.15]","","",""
"sailing-trial","239","1421928","0.0-11.0-198.0","","","","false","","","","","","","","","","1445","","1385.9999999997672","","0","0","arrowleft","0","arrowleft","[0.15,0.85,0.325,0.675]","","",""
"sailing-trial","240","1425348","0.0-11.0-199.0","","","","false","","","","","","","","","","null","","1383","","1","1","null","null","arrowup","[0.15,0.85,0.325,0.675]","","",""
"sailing-trial","241","1430314","0.0-11.0-200.0","","","","false","","","","","","","","","","1265","","290","","2","1","arrowright","1","arrowleft","[0.15,0.85,0.325,0.675]","","",""
"sailing-trial","242","1432761","0.0-11.0-201.0","","","","false","","","","","","","","","","null","","887","","2","0","null","null","arrowup","[0.15,0.85,0.325,0.675]","","",""
"sailing-trial","243","1438997","0.0-11.0-202.0","","","","false","","","","","","","","","","2208","","589.9999999997672","","2","1","arrowright","1","arrowleft","[0.15,0.85,0.325,0.675]","","",""
"sailing-trial","244","1442214","0.0-11.0-203.0","","","","false","","","","","","","","","","null","","849","","1","1","null","null","arrowup","[0.15,0.85,0.325,0.675]","","",""
"sailing-trial","245","1446818","0.0-11.0-204.0","","","","false","","","","","","","","","","1733","","4","","2","0","arrowright","1","arrowleft","[0.15,0.85,0.325,0.675]","","",""
"sailing-trial","246","1449182","0.0-11.0-205.0","","","","false","","","","","","","","","","null","","853","","1","0","null","null","arrowup","[0.15,0.85,0.325,0.675]","","",""
"sailing-trial","247","1453882","0.0-11.0-206.0","","","","false","","","","","","","","","","967","","823","","0","0","arrowleft","0","arrowleft","[0.15,0.85,0.325,0.675]","","",""
"sailing-trial","248","1456248","0.0-11.0-207.0","","","","false","","","","","","","","","","null","","928.9999999997672","","2","0","null","null","arrowup","[0.15,0.85,0.325,0.675]","","",""
"sailing-trial","249","1461585","0.0-11.0-208.0","","","","false","","","","","","","","","","1187.9999999997672","","1286","","0","0","arrowleft","0","arrowleft","[0.15,0.85,0.325,0.675]","","",""
"sailing-trial","250","1464765","0.0-11.0-209.0","","","","false","","","","","","","","","","null","","1142","","1","1","null","null","arrowup","[0.15,0.85,0.325,0.675]","","",""
"sailing-trial","251","1469815","0.0-11.0-210.0","","","","false","","","","","","","","","","719","","899","","1","1","arrowleft","0","arrowright","[0.15,0.85,0.325,0.675]","","",""
"sailing-trial","252","1473115","0.0-11.0-211.0","","","","false","","","","","","","","","","null","","1065","","2","1","null","null","arrowup","[0.15,0.85,0.325,0.675]","","",""
"sailing-trial","253","1477171","0.0-11.0-212.0","","","","false","","","","","","","","","","886","","117","","2","0","arrowright","1","arrowleft","[0.15,0.85,0.325,0.675]","","",""
"sailing-trial","254","1481033","0.0-11.0-213.0","","","","false","","","","","","","","","","null","","1814","","2","1","null","null","arrowup","[0.15,0.85,0.325,0.675]","","",""
"sailing-trial","255","1485883","0.0-11.0-214.0","","","","false","","","","","","","","","","946.0000000002328","","270","","1","1","arrowleft","0","arrowright","[0.325,0.675,0.15,0.85]","","",""
"sailing-trial","256","1489233","0.0-11.0-215.0","","","","false","","","","","","","","","","null","","1192.9999999997672","","3","1","null","null","arrowup","[0.325,0.675,0.15,0.85]","","",""
"sailing-trial","257","1493933","0.0-11.0-216.0","","","","false","","","","","","","","","","992","","44","","1","1","arrowleft","0","arrowright","[0.325,0.675,0.15,0.85]","","",""
"sailing-trial","258","1497450","0.0-11.0-217.0","","","","false","","","","","","","","","","null","","1030","","1","1","null","null","arrowup","[0.325,0.675,0.15,0.85]","","",""
"sailing-trial","259","1503250","0.0-11.0-218.0","","","","false","","","","","","","","","","1208","","1170","","1","1","arrowleft","0","arrowright","[0.325,0.675,0.15,0.85]","","",""
"sailing-trial","260","1506867","0.0-11.0-219.0","","","","false","","","","","","","","","","null","","1512","","3","1","null","null","arrowup","[0.325,0.675,0.15,0.85]","","",""
"sailing-trial","261","1511666","0.0-11.0-220.0","","","","false","","","","","","","","","","1094","","212.99999999976717","","1","0","arrowleft","0","arrowright","[0.325,0.675,0.15,0.85]","","",""
"sailing-trial","262","1514733","0.0-11.0-221.0","","","","false","","","","","","","","","","null","","946","","1","1","null","null","arrowup","[0.325,0.675,0.15,0.85]","","",""
"sailing-trial","263","1520334","0.0-11.0-222.0","","","","false","","","","","","","","","","761","","1068","","1","1","arrowleft","0","arrowright","[0.325,0.675,0.15,0.85]","","",""
"sailing-trial","264","1523567","0.0-11.0-223.0","","","","false","","","","","","","","","","null","","814","","1","1","null","null","arrowup","[0.325,0.675,0.15,0.85]","","",""
"sailing-trial","265","1528101","0.0-11.0-224.0","","","","false","","","","","","","","","","955","","446","","3","0","arrowright","1","arrowright","[0.325,0.675,0.15,0.85]","","",""
"sailing-trial","266","1531572","0.0-11.0-225.0","","","","false","","","","","","","","","","null","","865","","0","0","null","null","arrowup","[0.325,0.675,0.15,0.85]","","",""
"sailing-trial","267","1536493","0.0-11.0-226.0","","","","false","","","","","","","","","","1031","","412","","2","0","arrowright","1","arrowleft","[0.325,0.675,0.15,0.85]","","",""
"sailing-trial","268","1540868","0.0-11.0-227.0","","","","false","","","","","","","","","","null","","2778","","2","0","null","null","arrowup","[0.325,0.675,0.15,0.85]","","",""
"sailing-trial","269","1546950","0.0-11.0-228.0","","","","false","","","","","","","","","","1346","","1092.9999999997672","","1","1","arrowleft","0","arrowright","[0.325,0.675,0.15,0.85]","","",""
"sailing-trial","270","1551084","0.0-11.0-229.0","","","","false","","","","","","","","","","null","","1855","","3","1","null","null","arrowup","[0.325,0.675,0.15,0.85]","","",""
"sailing-trial","271","1556285","0.0-11.0-230.0","","","","false","","","","","","","","","","1737","","257","","1","1","arrowleft","0","arrowright","[0.15,0.85,0.325,0.675]","","",""
"sailing-trial","272","1558360","0.0-11.0-231.0","","","","false","","","","","","","","","","null","","586","","0","0","null","null","arrowup","[0.15,0.85,0.325,0.675]","","",""
"sailing-trial","273","1567585","0.0-11.0-232.0","","","","false","","","","","","","","","","5135","","533","","1","1","arrowleft","0","arrowright","[0.15,0.85,0.325,0.675]","","",""
"sailing-trial","274","1570485","0.0-11.0-233.0","","","","false","","","","","","","","","","null","","806","","2","1","null","null","arrowup","[0.15,0.85,0.325,0.675]","","",""
"sailing-trial","275","1577351","0.0-11.0-234.0","","","","false","","","","","","","","","","1734","","1031.9999999997672","","1","1","arrowleft","0","arrowright","[0.15,0.85,0.325,0.675]","","",""
"sailing-trial","276","1580451","0.0-11.0-235.0","","","","false","","","","","","","","","","null","","944","","3","1","null","null","arrowup","[0.15,0.85,0.325,0.675]","","",""
"sailing-trial","277","1585509","0.0-11.0-236.0","","","","false","","","","","","","","","","2071","","171.00000000023283","","1","0","arrowleft","0","arrowright","[0.15,0.85,0.325,0.675]","","",""
"sailing-trial","278","1588235","0.0-11.0-237.0","","","","false","","","","","","","","","","null","","690","","2","1","null","null","arrowup","[0.15,0.85,0.325,0.675]","","",""
"sailing-trial","279","1594352","0.0-11.0-238.0","","","","false","","","","","","","","","","1293","","1433","","3","1","arrowright","1","arrowright","[0.15,0.85,0.325,0.675]","","",""
"sailing-trial","280","1597386","0.0-11.0-239.0","","","","false","","","","","","","","","","null","","801","","3","1","null","null","arrowup","[0.15,0.85,0.325,0.675]","","",""
"sailing-trial","281","1603819","0.0-11.0-240.0","","","","false","","","","","","","","","","1604","","1326","","3","1","arrowright","1","arrowright","[0.15,0.85,0.325,0.675]","","",""
"sailing-trial","282","1606362","0.0-11.0-241.0","","","","false","","","","","","","","","","null","","789.9999999997672","","2","0","null","null","arrowup","[0.15,0.85,0.325,0.675]","","",""
"sailing-trial","283","1613002","0.0-11.0-242.0","","","","false","","","","","","","","","","2491","","616","","3","1","arrowright","1","arrowright","[0.15,0.85,0.325,0.675]","","",""
"sailing-trial","284","1617205","0.0-11.0-243.0","","","","false","","","","","","","","","","null","","2659.999999999767","","2","0","null","null","arrowup","[0.15,0.85,0.325,0.675]","","",""
"sailing-trial","285","1621936","0.0-11.0-244.0","","","","false","","","","","","","","","","1045.9999999997672","","270","","1","1","arrowleft","0","arrowright","[0.15,0.85,0.325,0.675]","","",""
"sailing-trial","286","1624460","0.0-11.0-245.0","","","","false","","","","","","","","","","null","","966","","3","0","null","null","arrowup","[0.15,0.85,0.325,0.675]","","",""
"sailing-trial","287","1630470","0.0-11.0-246.0","","","","false","","","","","","","","","","1262","","989.9999999997672","","1","1","arrowleft","0","arrowright","[0.15,0.85,0.325,0.675]","","",""
"sailing-trial","288","1633081","0.0-11.0-247.0","","","","false","","","","","","","","","","null","","859","","2","0","null","null","arrowup","[0.15,0.85,0.325,0.675]","","",""
"sailing-trial","289","1641703","0.0-11.0-248.0","","","","false","","","","","","","","","","3026","","482.00000000023283","","1","1","arrowleft","0","arrowright","[0.15,0.85,0.325,0.675]","","",""
"sailing-trial","290","1644411","0.0-11.0-249.0","","","","false","","","","","","","","","","null","","975","","2","0","null","null","arrowup","[0.15,0.85,0.325,0.675]","","",""
"sailing-trial","291","1650988","0.0-11.0-250.0","","","","false","","","","","","","","","","3226.000000000233","","768","","1","0","arrowleft","0","arrowright","[0.325,0.675,0.15,0.85]","","",""
"sailing-trial","292","1653502","0.0-11.0-251.0","","","","false","","","","","","","","","","null","","724","","1","0","null","null","arrowup","[0.325,0.675,0.15,0.85]","","",""
"sailing-trial","293","1657455","0.0-11.0-252.0","","","","false","","","","","","","","","","641","","214","","3","1","arrowright","1","arrowright","[0.325,0.675,0.15,0.85]","","",""
"sailing-trial","294","1659980","0.0-11.0-253.0","","","","false","","","","","","","","","","null","","751.9999999997672","","2","0","null","null","arrowup","[0.325,0.675,0.15,0.85]","","",""
"sailing-trial","295","1669405","0.0-11.0-254.0","","","","false","","","","","","","","","","4862","","1083","","3","1","arrowright","1","arrowright","[0.325,0.675,0.15,0.85]","","",""
"sailing-trial","296","1673071","0.0-11.0-255.0","","","","false","","","","","","","","","","null","","1173","","1","1","null","null","arrowup","[0.325,0.675,0.15,0.85]","","",""
"sailing-trial","297","1677739","0.0-11.0-256.0","","","","false","","","","","","","","","","876","","370","","3","1","arrowright","1","arrowright","[0.325,0.675,0.15,0.85]","","",""
"sailing-trial","298","1680481","0.0-11.0-257.0","","","","false","","","","","","","","","","null","","1264","","0","0","null","null","arrowup","[0.325,0.675,0.15,0.85]","","",""
"sailing-trial","299","1686388","0.0-11.0-258.0","","","","false","","","","","","","","","","1314","","1190","","3","1","arrowright","1","arrowright","[0.325,0.675,0.15,0.85]","","",""
"sailing-trial","300","1690490","0.0-11.0-259.0","","","","false","","","","","","","","","","null","","1541","","3","1","null","null","arrowup","[0.325,0.675,0.15,0.85]","","",""
"sailing-trial","301","1696289","0.0-11.0-260.0","","","","false","","","","","","","","","","1290","","1077","","3","1","arrowright","1","arrowright","[0.325,0.675,0.15,0.85]","","",""
"sailing-trial","302","1699305","0.0-11.0-261.0","","","","false","","","","","","","","","","null","","768","","3","1","null","null","arrowup","[0.325,0.675,0.15,0.85]","","",""
"sailing-trial","303","1705139","0.0-11.0-262.0","","","","false","","","","","","","","","","1089","","995","","3","1","arrowright","1","arrowright","[0.325,0.675,0.15,0.85]","","",""
"sailing-trial","304","1708389","0.0-11.0-263.0","","","","false","","","","","","","","","","null","","960","","0","1","null","null","arrowup","[0.325,0.675,0.15,0.85]","","",""
"sailing-trial","305","1714238","0.0-11.0-264.0","","","","false","","","","","","","","","","1671","","388.00000000023283","","3","1","arrowright","1","arrowright","[0.325,0.675,0.15,0.85]","","",""
"sailing-trial","306","1719069","0.0-11.0-265.0","","","","false","","","","","","","","","","null","","3272","","2","0","null","null","arrowup","[0.325,0.675,0.15,0.85]","","",""
"sailing-trial","307","1724341","0.0-11.0-266.0","","","","false","","","","","","","","","","1219","","968","","0","0","arrowleft","0","arrowleft","[0.325,0.675,0.15,0.85]","","",""
"sailing-trial","308","1727523","0.0-11.0-267.0","","","","false","","","","","","","","","","null","","1092","","3","1","null","null","arrowup","[0.325,0.675,0.15,0.85]","","",""
"sailing-trial","309","1733068","0.0-11.0-268.0","","","","false","","","","","","","","","","2049.000000000233","","543.0000000002328","","1","0","arrowleft","0","arrowright","[0.325,0.675,0.15,0.85]","","",""
"sailing-trial","310","1735840","0.0-11.0-269.0","","","","false","","","","","","","","","","null","","773.0000000002328","","3","1","null","null","arrowup","[0.325,0.675,0.15,0.85]","","",""
"sailing-trial","311","1740356","0.0-11.0-270.0","","","","false","","","","","","","","","","831","","311","","3","1","arrowright","1","arrowright","[0.15,0.85,0.325,0.675]","","",""
"sailing-trial","312","1742873","0.0-11.0-271.0","","","","false","","","","","","","","","","null","","935","","0","0","null","null","arrowup","[0.15,0.85,0.325,0.675]","","",""
"sailing-trial","313","1750424","0.0-11.0-272.0","","","","false","","","","","","","","","","3051.999999999767","","83","","3","0","arrowright","1","arrowright","[0.15,0.85,0.325,0.675]","","",""
"sailing-trial","314","1755324","0.0-11.0-273.0","","","","false","","","","","","","","","","null","","2845","","1","1","null","null","arrowup","[0.15,0.85,0.325,0.675]","","",""
"sailing-trial","315","1762307","0.0-11.0-274.0","","","","false","","","","","","","","","","2366.999999999767","","1044.0000000002328","","3","1","arrowright","1","arrowright","[0.15,0.85,0.325,0.675]","","",""
"sailing-trial","316","1768829","0.0-11.0-275.0","","","","false","","","","","","","","","","null","","4930","","0","0","null","null","arrowup","[0.15,0.85,0.325,0.675]","","",""
"sailing-trial","317","1778142","0.0-11.0-276.0","","","","false","","","","","","","","","","3112","","1358","","1","1","arrowleft","0","arrowright","[0.15,0.85,0.325,0.675]","","",""
"sailing-trial","318","1782208","0.0-11.0-277.0","","","","false","","","","","","","","","","null","","1339.9999999997672","","0","1","null","null","arrowup","[0.15,0.85,0.325,0.675]","","",""
"sailing-trial","319","1787141","0.0-11.0-278.0","","","","false","","","","","","","","","","1437","","540","","0","0","arrowleft","0","arrowleft","[0.15,0.85,0.325,0.675]","","",""
"sailing-trial","320","1790777","0.0-11.0-279.0","","","","false","","","","","","","","","","null","","1406.9999999997672","","1","1","null","null","arrowup","[0.15,0.85,0.325,0.675]","","",""
"sailing-trial","321","1803796","0.0-11.0-280.0","","","","false","","","","","","","","","","7248","","1199.9999999997672","","1","1","arrowleft","0","arrowright","[0.15,0.85,0.325,0.675]","","",""
"sailing-trial","322","1807290","0.0-11.0-281.0","","","","false","","","","","","","","","","null","","1945","","2","0","null","null","arrowup","[0.15,0.85,0.325,0.675]","","",""
"sailing-trial","323","1812596","0.0-11.0-282.0","","","","false","","","","","","","","","","941","","701","","3","1","arrowright","1","arrowright","[0.15,0.85,0.325,0.675]","","",""
"sailing-trial","324","1818329","0.0-11.0-283.0","","","","false","","","","","","","","","","null","","3688","","1","1","null","null","arrowup","[0.15,0.85,0.325,0.675]","","",""
"sailing-trial","325","1824729","0.0-11.0-284.0","","","","false","","","","","","","","","","2158","","167","","1","1","arrowleft","0","arrowright","[0.15,0.85,0.325,0.675]","","",""
"sailing-trial","326","1828602","0.0-11.0-285.0","","","","false","","","","","","","","","","null","","2315","","0","0","null","null","arrowup","[0.15,0.85,0.325,0.675]","","",""
"sailing-trial","327","1833263","0.0-11.0-286.0","","","","false","","","","","","","","","","911","","364","","3","1","arrowright","1","arrowright","[0.15,0.85,0.325,0.675]","","",""
"sailing-trial","328","1836479","0.0-11.0-287.0","","","","false","","","","","","","","","","null","","1163","","3","1","null","null","arrowup","[0.15,0.85,0.325,0.675]","","",""
"sailing-trial","329","1842034","0.0-11.0-288.0","","","","false","","","","","","","","","","1451","","1118","","3","0","arrowright","1","arrowright","[0.15,0.85,0.325,0.675]","","",""
"sailing-trial","330","1845079","0.0-11.0-289.0","","","","false","","","","","","","","","","null","","963","","1","1","null","null","arrowup","[0.15,0.85,0.325,0.675]","","",""
"sailing-trial","331","1850400","0.0-11.0-290.0","","","","false","","","","","","","","","","1384","","662.0000000002328","","3","0","arrowright","1","arrowright","[0.325,0.675,0.15,0.85]","","",""
"sailing-trial","332","1855243","0.0-11.0-291.0","","","","false","","","","","","","","","","null","","3239.000000000233","","1","0","null","null","arrowup","[0.325,0.675,0.15,0.85]","","",""
"sailing-trial","333","1864496","0.0-11.0-292.0","","","","false","","","","","","","","","","2008","","2206","","0","1","arrowleft","0","arrowleft","[0.325,0.675,0.15,0.85]","","",""
"sailing-trial","334","1868451","0.0-11.0-293.0","","","","false","","","","","","","","","","null","","2264","","0","0","null","null","arrowup","[0.325,0.675,0.15,0.85]","","",""
"sailing-trial","335","1873217","0.0-11.0-294.0","","","","false","","","","","","","","","","1370","","336","","1","0","arrowleft","0","arrowright","[0.325,0.675,0.15,0.85]","","",""
"sailing-trial","336","1875884","0.0-11.0-295.0","","","","false","","","","","","","","","","null","","1306","","2","0","null","null","arrowup","[0.325,0.675,0.15,0.85]","","",""
"sailing-trial","337","1882414","0.0-11.0-296.0","","","","false","","","","","","","","","","932","","2085","","0","1","arrowleft","0","arrowleft","[0.325,0.675,0.15,0.85]","","",""
"sailing-trial","338","1886055","0.0-11.0-297.0","","","","false","","","","","","","","","","null","","964","","0","0","null","null","arrowup","[0.325,0.675,0.15,0.85]","","",""
"sailing-trial","339","1893814","0.0-11.0-298.0","","","","false","","","","","","","","","","749","","2608","","0","0","arrowleft","0","arrowleft","[0.325,0.675,0.15,0.85]","","",""
"sailing-trial","340","1896469","0.0-11.0-299.0","","","","false","","","","","","","","","","null","","1452","","0","0","null","null","arrowup","[0.325,0.675,0.15,0.85]","","",""
"sailing-trial","341","1902601","0.0-11.0-300.0","","","","false","","","","","","","","","","1289","","1379","","0","0","arrowleft","0","arrowleft","[0.325,0.675,0.15,0.85]","","",""
"sailing-trial","342","1908097","0.0-11.0-301.0","","","","false","","","","","","","","","","null","","3147.999999999767","","3","1","null","null","arrowup","[0.325,0.675,0.15,0.85]","","",""
"sailing-trial","343","1915548","0.0-11.0-302.0","","","","false","","","","","","","","","","2763","","928","","3","1","arrowright","1","arrowright","[0.325,0.675,0.15,0.85]","","",""
"sailing-trial","344","1920198","0.0-11.0-303.0","","","","false","","","","","","","","","","null","","2384","","3","1","null","null","arrowup","[0.325,0.675,0.15,0.85]","","",""
"sailing-trial","345","1926176","0.0-11.0-304.0","","","","false","","","","","","","","","","1655.0000000002328","","1192","","3","0","arrowright","1","arrowright","[0.325,0.675,0.15,0.85]","","",""
"sailing-trial","346","1930349","0.0-11.0-305.0","","","","false","","","","","","","","","","null","","1134","","2","0","null","null","arrowup","[0.325,0.675,0.15,0.85]","","",""
"sailing-trial","347","1936817","0.0-11.0-306.0","","","","false","","","","","","","","","","1169","","892.0000000002328","","2","0","arrowright","1","arrowleft","[0.325,0.675,0.15,0.85]","","",""
"sailing-trial","348","1941433","0.0-11.0-307.0","","","","false","","","","","","","","","","null","","1260","","3","1","null","null","arrowup","[0.325,0.675,0.15,0.85]","","",""
"sailing-trial","349","1947310","0.0-11.0-308.0","","","","false","","","","","","","","","","2074","","909.0000000002328","","1","0","arrowleft","0","arrowright","[0.15,0.85,0.325,0.675]","","",""
"sailing-trial","350","1953969","0.0-11.0-309.0","","","","false","","","","","","","","","","null","","3616","","1","0","null","null","arrowup","[0.15,0.85,0.325,0.675]","","",""
"sailing-trial","351","1960699","0.0-11.0-310.0","","","","false","","","","","","","","","","1193","","1174","","0","0","arrowleft","0","arrowleft","[0.15,0.85,0.325,0.675]","","",""
"sailing-trial","352","1964218","0.0-11.0-311.0","","","","false","","","","","","","","","","null","","1290.9999999997672","","0","0","null","null","arrowup","[0.15,0.85,0.325,0.675]","","",""
"sailing-trial","353","1968799","0.0-11.0-312.0","","","","false","","","","","","","","","","774","","170","","1","1","arrowleft","0","arrowright","[0.15,0.85,0.325,0.675]","","",""
"sailing-trial","354","1971607","0.0-11.0-313.0","","","","false","","","","","","","","","","null","","1293","","2","0","null","null","arrowup","[0.15,0.85,0.325,0.675]","","",""
"sailing-trial","355","1977567","0.0-11.0-314.0","","","","false","","","","","","","","","","1054","","1499","","1","1","arrowleft","0","arrowright","[0.15,0.85,0.325,0.675]","","",""
"sailing-trial","356","1980534","0.0-11.0-315.0","","","","false","","","","","","","","","","null","","796","","0","1","null","null","arrowup","[0.15,0.85,0.325,0.675]","","",""
"sailing-trial","357","1985583","0.0-11.0-316.0","","","","false","","","","","","","","","","1353","","238","","1","1","arrowleft","0","arrowright","[0.15,0.85,0.325,0.675]","","",""
"sailing-trial","358","1987763","0.0-11.0-317.0","","","","false","","","","","","","","","","null","","653","","2","0","null","null","arrowup","[0.15,0.85,0.325,0.675]","","",""
"sailing-trial","359","1991862","0.0-11.0-318.0","","","","false","","","","","","","","","","1089","","65","","1","0","arrowleft","0","arrowright","[0.15,0.85,0.325,0.675]","","",""
"sailing-trial","360","1996458","0.0-11.0-319.0","","","","false","","","","","","","","","","null","","2898","","2","0","null","null","arrowup","[0.15,0.85,0.325,0.675]","","",""
"sailing-trial","361","2004284","0.0-11.0-320.0","","","","false","","","","","","","","","","1003.0000000002328","","1200.9999999997672","","1","1","arrowleft","0","arrowright","[0.15,0.85,0.325,0.675]","","",""
"sailing-trial","362","2006808","0.0-11.0-321.0","","","","false","","","","","","","","","","null","","887","","0","0","null","null","arrowup","[0.15,0.85,0.325,0.675]","","",""
"sailing-trial","363","2012033","0.0-11.0-322.0","","","","false","","","","","","","","","","1525.9999999997672","","30","","1","1","arrowleft","0","arrowright","[0.15,0.85,0.325,0.675]","","",""
"sailing-trial","364","2015800","0.0-11.0-323.0","","","","false","","","","","","","","","","null","","1613","","2","1","null","null","arrowup","[0.15,0.85,0.325,0.675]","","",""
"sailing-trial","365","2021018","0.0-11.0-324.0","","","","false","","","","","","","","","","1560","","45","","3","1","arrowright","1","arrowright","[0.15,0.85,0.325,0.675]","","",""
"sailing-trial","366","2024284","0.0-11.0-325.0","","","","false","","","","","","","","","","null","","817","","1","1","null","null","arrowup","[0.15,0.85,0.325,0.675]","","",""
"sailing-trial","367","2029722","0.0-11.0-326.0","","","","false","","","","","","","","","","1776","","454.00000000023283","","3","0","arrowright","1","arrowright","[0.15,0.85,0.325,0.675]","","",""
"sailing-trial","368","2033012","0.0-11.0-327.0","","","","false","","","","","","","","","","null","","1287.0000000002328","","1","0","null","null","arrowup","[0.15,0.85,0.325,0.675]","","",""
"sailing-trial","369","2039268","0.0-11.0-328.0","","","","false","","","","","","","","","","1731","","596","","3","1","arrowright","1","arrowright","[0.15,0.85,0.325,0.675]","","",""
"sailing-trial","370","2042818","0.0-11.0-329.0","","","","false","","","","","","","","","","null","","939","","3","1","null","null","arrowup","[0.15,0.85,0.325,0.675]","","",""
"sailing-trial","371","2050193","0.0-11.0-330.0","","","","false","","","","","","","","","","2057","","934","","1","0","arrowleft","0","arrowright","[0.675,0.325,0.85,0.15]","","",""
"sailing-trial","372","2053720","0.0-11.0-331.0","","","","false","","","","","","","","","","null","","1560.9999999995343","","1","0","null","null","arrowup","[0.675,0.325,0.85,0.15]","","",""
"sailing-trial","373","2058802","0.0-11.0-332.0","","","","false","","","","","","","","","","1136.9999999997672","","252.99999999953434","","0","1","arrowleft","0","arrowleft","[0.675,0.325,0.85,0.15]","","",""
"sailing-trial","374","2062452","0.0-11.0-333.0","","","","false","","","","","","","","","","null","","1603.0000000002328","","0","0","null","null","arrowup","[0.675,0.325,0.85,0.15]","","",""
"sailing-trial","375","2068552","0.0-11.0-334.0","","","","false","","","","","","","","","","965","","967","","0","1","arrowleft","0","arrowleft","[0.675,0.325,0.85,0.15]","","",""
"sailing-trial","376","2072351","0.0-11.0-335.0","","","","false","","","","","","","","","","null","","1135.0000000002328","","0","1","null","null","arrowup","[0.675,0.325,0.85,0.15]","","",""
"sailing-trial","377","2080842","0.0-11.0-336.0","","","","false","","","","","","","","","","2305.0000000004657","","2476.000000000233","","0","0","arrowleft","0","arrowleft","[0.675,0.325,0.85,0.15]","","",""
"sailing-trial","378","2084702","0.0-11.0-337.0","","","","false","","","","","","","","","","null","","1461.0000000002328","","2","1","null","null","arrowup","[0.675,0.325,0.85,0.15]","","",""
"sailing-trial","379","2089317","0.0-11.0-338.0","","","","false","","","","","","","","","","1464","","19.00000000023283","","0","0","arrowleft","0","arrowleft","[0.675,0.325,0.85,0.15]","","",""
"sailing-trial","380","2092298","0.0-11.0-339.0","","","","false","","","","","","","","","","null","","1326","","1","0","null","null","arrowup","[0.675,0.325,0.85,0.15]","","",""
"sailing-trial","381","2099136","0.0-11.0-340.0","","","","false","","","","","","","","","","3174","","230","","3","0","arrowright","1","arrowright","[0.675,0.325,0.85,0.15]","","",""
"sailing-trial","382","2104419","0.0-11.0-341.0","","","","false","","","","","","","","","","null","","2707","","3","1","null","null","arrowup","[0.675,0.325,0.85,0.15]","","",""
"sailing-trial","383","2113588","0.0-11.0-342.0","","","","false","","","","","","","","","","3859","","913","","3","0","arrowright","1","arrowright","[0.675,0.325,0.85,0.15]","","",""
"sailing-trial","384","2117669","0.0-11.0-343.0","","","","false","","","","","","","","","","null","","1744","","3","1","null","null","arrowup","[0.675,0.325,0.85,0.15]","","",""
"sailing-trial","385","2123311","0.0-11.0-344.0","","","","false","","","","","","","","","","1101","","1449","","3","0","arrowright","1","arrowright","[0.675,0.325,0.85,0.15]","","",""
"sailing-trial","386","2127073","0.0-11.0-345.0","","","","false","","","","","","","","","","null","","2160","","3","0","null","null","arrowup","[0.675,0.325,0.85,0.15]","","",""
"sailing-trial","387","2132670","0.0-11.0-346.0","","","","false","","","","","","","","","","1345","","683","","3","1","arrowright","1","arrowright","[0.85,0.15,0.675,0.325]","","",""
"sailing-trial","388","2137372","0.0-11.0-347.0","","","","false","","","","","","","","","","null","","2158","","0","1","null","null","arrowup","[0.85,0.15,0.675,0.325]","","",""
"sailing-trial","389","2142155","0.0-11.0-348.0","","","","false","","","","","","","","","","1179","","179","","0","1","arrowleft","0","arrowleft","[0.85,0.15,0.675,0.325]","","",""
"sailing-trial","390","2146948","0.0-11.0-349.0","","","","false","","","","","","","","","","null","","3142","","3","0","null","null","arrowup","[0.85,0.15,0.675,0.325]","","",""
"sailing-trial","391","2153739","0.0-11.0-350.0","","","","false","","","","","","","","","","1215.0000000004657","","1866","","0","1","arrowleft","0","arrowleft","[0.85,0.15,0.675,0.325]","","",""
"sailing-trial","392","2157339","0.0-11.0-351.0","","","","false","","","","","","","","","","null","","2050.9999999995343","","0","1","null","null","arrowup","[0.85,0.15,0.675,0.325]","","",""
"sailing-trial","393","2168289","0.0-11.0-352.0","","","","false","","","","","","","","","","3192","","4231","","3","1","arrowright","1","arrowright","[0.85,0.15,0.675,0.325]","","",""
"sailing-trial","394","2170595","0.0-11.0-353.0","","","","false","","","","","","","","","","null","","724.9999999995343","","2","0","null","null","arrowup","[0.85,0.15,0.675,0.325]","","",""
"sailing-trial","395","2176822","0.0-11.0-354.0","","","","false","","","","","","","","","","1367","","1673","","3","1","arrowright","1","arrowright","[0.85,0.15,0.675,0.325]","","",""
"sailing-trial","396","2182474","0.0-11.0-355.0","","","","false","","","","","","","","","","null","","3968","","1","0","null","null","arrowup","[0.85,0.15,0.675,0.325]","","",""
"sailing-trial","397","2195373","0.0-11.0-356.0","","","","false","","","","","","","","","","3695","","1040","","1","1","arrowleft","0","arrowright","[0.85,0.15,0.675,0.325]","","",""
"sailing-trial","398","2200257","0.0-11.0-357.0","","","","false","","","","","","","","","","null","","2833","","1","1","null","null","arrowup","[0.85,0.15,0.675,0.325]","","",""
"sailing-trial","399","2206407","0.0-11.0-358.0","","","","false","","","","","","","","","","1239","","1171.0000000004657","","3","1","arrowright","1","arrowright","[0.85,0.15,0.675,0.325]","","",""
"sailing-trial","400","2211625","0.0-11.0-359.0","","","","false","","","","","","","","","","null","","3521","","1","0","null","null","arrowup","[0.85,0.15,0.675,0.325]","","",""
"sailing-trial","401","2217684","0.0-11.0-360.0","","","","false","","","","","","","","","","1469","","1340","","3","0","arrowright","1","arrowright","[0.85,0.15,0.675,0.325]","","",""
"sailing-trial","402","2224690","0.0-11.0-361.0","","","","false","","","","","","","","","","null","","4765","","2","1","null","null","arrowup","[0.85,0.15,0.675,0.325]","","",""
"sailing-trial","403","2232474","0.0-11.0-362.0","","","","false","","","","","","","","","","1163","","505","","0","1","arrowleft","0","arrowleft","[0.675,0.325,0.85,0.15]","","",""
"sailing-trial","404","2236291","0.0-11.0-363.0","","","","false","","","","","","","","","","null","","1728","","3","1","null","null","arrowup","[0.675,0.325,0.85,0.15]","","",""
"sailing-trial","405","2240388","0.0-11.0-364.0","","","","false","","","","","","","","","","837.9999999995343","","191","","3","0","arrowright","1","arrowright","[0.675,0.325,0.85,0.15]","","",""
"sailing-trial","406","2247358","0.0-11.0-365.0","","","","false","","","","","","","","","","null","","1054.9999999995343","","2","1","null","null","arrowup","[0.675,0.325,0.85,0.15]","","",""
"sailing-trial","407","2253195","0.0-11.0-366.0","","","","false","","","","","","","","","","1340","","149","","3","0","arrowright","1","arrowright","[0.675,0.325,0.85,0.15]","","",""
"sailing-trial","408","2268043","0.0-11.0-367.0","","","","false","","","","","","","","","","null","","7569","","2","1","null","null","arrowup","[0.675,0.325,0.85,0.15]","","",""
"sailing-trial","409","2272627","0.0-11.0-368.0","","","","false","","","","","","","","","","1269.9999999995343","","280","","0","0","arrowleft","0","arrowleft","[0.675,0.325,0.85,0.15]","","",""
"sailing-trial","410","2275338","0.0-11.0-369.0","","","","false","","","","","","","","","","null","","990","","0","0","null","null","arrowup","[0.675,0.325,0.85,0.15]","","",""
"sailing-trial","411","2284475","0.0-11.0-370.0","","","","false","","","","","","","","","","2765.9999999995343","","366","","3","1","arrowright","1","arrowright","[0.675,0.325,0.85,0.15]","","",""
"sailing-trial","412","2289659","0.0-11.0-371.0","","","","false","","","","","","","","","","null","","917","","0","1","null","null","arrowup","[0.675,0.325,0.85,0.15]","","",""
"sailing-trial","413","2295194","0.0-11.0-372.0","","","","false","","","","","","","","","","633","","1893","","3","0","arrowright","1","arrowright","[0.675,0.325,0.85,0.15]","","",""
"sailing-trial","414","2302828","0.0-11.0-373.0","","","","false","","","","","","","","","","null","","4600","","1","0","null","null","arrowup","[0.675,0.325,0.85,0.15]","","",""
"sailing-trial","415","2315340","0.0-11.0-374.0","","","","false","","","","","","","","","","2784","","6364","","0","0","arrowleft","0","arrowleft","[0.675,0.325,0.85,0.15]","","",""
"sailing-trial","416","2324960","0.0-11.0-375.0","","","","false","","","","","","","","","","null","","7307","","3","1","null","null","arrowup","[0.675,0.325,0.85,0.15]","","",""
"sailing-trial","417","2333238","0.0-11.0-376.0","","","","false","","","","","","","","","","2785.0000000004657","","1786","","3","0","arrowright","1","arrowright","[0.675,0.325,0.85,0.15]","","",""
"sailing-trial","418","2337206","0.0-11.0-377.0","","","","false","","","","","","","","","","null","","1954","","3","0","null","null","arrowup","[0.675,0.325,0.85,0.15]","","",""
"sailing-trial","419","2343127","0.0-11.0-378.0","","","","false","","","","","","","","","","1054","","1317","","1","1","arrowleft","0","arrowright","[0.675,0.325,0.85,0.15]","","",""
"sailing-trial","420","2345960","0.0-11.0-379.0","","","","false","","","","","","","","","","null","","964.9999999995343","","3","0","null","null","arrowup","[0.675,0.325,0.85,0.15]","","",""
"sailing-trial","421","2353995","0.0-11.0-380.0","","","","false","","","","","","","","","","2026","","2272.9999999995343","","0","1","arrowleft","0","arrowleft","[0.675,0.325,0.85,0.15]","","",""
"sailing-trial","422","2363579","0.0-11.0-381.0","","","","false","","","","","","","","","","null","","4435","","1","1","null","null","arrowup","[0.675,0.325,0.85,0.15]","","",""
"sailing-trial","423","2370689","0.0-11.0-382.0","","","","false","","","","","","","","","","1882","","1872.0000000004657","","3","0","arrowright","1","arrowright","[0.675,0.325,0.85,0.15]","","",""
"sailing-trial","424","2377645","0.0-11.0-383.0","","","","false","","","","","","","","","","null","","4723","","1","1","null","null","arrowup","[0.675,0.325,0.85,0.15]","","",""
"sailing-trial","425","2389779","0.0-11.0-384.0","","","","false","","","","","","","","","","2874","","5495","","3","1","arrowright","1","arrowright","[0.85,0.15,0.675,0.325]","","",""
"sailing-trial","426","2393253","0.0-11.0-385.0","","","","false","","","","","","","","","","null","","1408","","0","0","null","null","arrowup","[0.85,0.15,0.675,0.325]","","",""
"sailing-trial","427","2405260","0.0-11.0-386.0","","","","false","","","","","","","","","","3009","","5893","","1","0","arrowleft","0","arrowright","[0.85,0.15,0.675,0.325]","","",""
"sailing-trial","428","2409363","0.0-11.0-387.0","","","","false","","","","","","","","","","null","","1081","","0","1","null","null","arrowup","[0.85,0.15,0.675,0.325]","","",""
"sailing-trial","429","2416330","0.0-11.0-388.0","","","","false","","","","","","","","","","2346","","146.00000000046566","","1","0","arrowleft","0","arrowright","[0.85,0.15,0.675,0.325]","","",""
"sailing-trial","430","2420229","0.0-11.0-389.0","","","","false","","","","","","","","","","null","","1427","","2","1","null","null","arrowup","[0.85,0.15,0.675,0.325]","","",""
"sailing-trial","431","2425273","0.0-11.0-390.0","","","","false","","","","","","","","","","1658","","476","","0","0","arrowleft","0","arrowleft","[0.85,0.15,0.675,0.325]","","",""
"sailing-trial","432","2428597","0.0-11.0-391.0","","","","false","","","","","","","","","","null","","1171","","3","1","null","null","arrowup","[0.85,0.15,0.675,0.325]","","",""
"sailing-trial","433","2436580","0.0-11.0-392.0","","","","false","","","","","","","","","","1161.0000000004657","","3240.9999999995343","","0","1","arrowleft","0","arrowleft","[0.85,0.15,0.675,0.325]","","",""
"sailing-trial","434","2440814","0.0-11.0-393.0","","","","false","","","","","","","","","","null","","1199","","3","0","null","null","arrowup","[0.85,0.15,0.675,0.325]","","",""
"sailing-trial","435","2447565","0.0-11.0-394.0","","","","false","","","","","","","","","","2148","","166","","1","0","arrowleft","0","arrowright","[0.85,0.15,0.675,0.325]","","",""
"sailing-trial","436","2454630","0.0-11.0-395.0","","","","false","","","","","","","","","","null","","1290.9999999995343","","0","1","null","null","arrowup","[0.85,0.15,0.675,0.325]","","",""
"sailing-trial","437","2461848","0.0-11.0-396.0","","","","false","","","","","","","","","","925","","159.99999999953434","","0","1","arrowleft","0","arrowleft","[0.85,0.15,0.675,0.325]","","",""
"sailing-trial","438","2472832","0.0-11.0-397.0","","","","false","","","","","","","","","","null","","1735","","0","1","null","null","arrowup","[0.85,0.15,0.675,0.325]","","",""
"sailing-trial","439","2479065","0.0-11.0-398.0","","","","false","","","","","","","","","","1052.0000000004657","","729","","0","0","arrowleft","0","arrowleft","[0.85,0.15,0.675,0.325]","","",""
"sailing-trial","440","2483682","0.0-11.0-399.0","","","","false","","","","","","","","","","null","","1586.0000000004657","","1","0","null","null","arrowup","[0.85,0.15,0.675,0.325]","","",""
"instructions","441","2494327","0.0-12.0","","","","","","","","","","10644","","","","","","","","","","","","","","","","[{""page_index"":0,""viewing_time"":10644}]"
"survey-debrief","442","2533682","0.0-13.0","","","","","","","","","","39352","","","","","","","","","","","","","","{""difficulty"":""3"",""fun"":""5"",""clarity"":""5"",""strategy"":""keeping track of the colors"",""feedback"":""no""}","",""
