"trial_type","trial_index","time_elapsed","internal_node_id","value","metadata","success","timeout","failed_images","failed_audio","failed_video","browser_interaction","low_quality","rt","stimulus","response","button_pressed","island_rt","island_response","boat_rt","boat_response","boat","reward","island_key","island","boat_key","reward_probabilities","responses","num_errors","view_history"
"pavlovia","0","2","0.0-0.0","","","","","","","","","","","","","","","","","","","","","","","","","",""
"call-function","1","2","0.0-1.0","","{""task_version"":""sailing_part1_v1"",""task_condition"":""good"",""boats"":[""A"",""C"",""D"",""B""],""boats_demo"":[""F"",""G"",""H"",""E""],""islands"":[""B"",""A""],""subject_id"":""14722"",""age"":""9"",""gender"":""Female""}","","","","","","","","","","","","","","","","","","","","","","","",""
"preload","2","10391","0.0-2.0","","","true","false","[]","[]","[]","[{""event"":""fullscreenenter"",""trial"":3,""time"":14679}]","false","","","","","","","","","","","","","","","","",""
"fullscreen","3","15665","0.0-3.0","","","true","","","","","","","","","","","","","","","","","","","","","","",""
"audio-keyboard-response","4","20905","0.0-4.0-0.0","","","","","","","","","","5237.333333333334","audio/beep_loop.wav"," ","","","","","","","","","","","","","",""
"audio-test","5","26467","0.0-4.0-1.0","","","","","","","","","","null","audio/turtle.mp3","","3","","","","","","","","","","","","",""
"audio-test","6","29889","0.0-4.0-2.0","","","","","","","","","","null","audio/shark.mp3","","2","","","","","","","","","","","","",""
"sailing-instructions","7","69225","0.0-5.0-0.0-0.0","","","","","","","","","","","","","","null","null","null","null","null","null","","","","","","",""
"sailing-trial","8","79877","0.0-5.0-0.0-1.0-0.0","","","","false","","","","","","","","","","9531.5","","null","","null","null","arrowleft","0","null","null","","",""
"sailing-trial","9","83212","0.0-5.0-0.0-1.0-1.0","","","","false","","","","","","","","","","2218.5","","null","","null","null","arrowright","1","null","null","","",""
"sailing-trial","10","87363","0.0-5.0-0.0-1.0-2.0","","","","false","","","","","","","","","","3031.7000000476837","","null","","null","null","arrowright","1","null","null","","",""
"sailing-instructions","11","167998","0.0-5.0-0.0-2.0","","","","","","","","","","","","","","null","null","null","null","0","null","","","","","","",""
"sailing-trial","12","186617","0.0-5.0-0.0-3.0-0.0","","","","false","","","","","","","","","","null","","12004.699999928474","","2","1","null","null","arrowleft","[1,1,1,1]","","",""
"sailing-trial","13","195338","0.0-5.0-0.0-3.0-1.0","","","","false","","","","","","","","","","null","","3107.2999999523163","","3","1","null","null","arrowright","[1,1,1,1]","","",""
"sailing-trial","14","202990","0.0-5.0-0.0-3.0-2.0","","","","false","","","","","","","","","","null","","4112","","2","0","null","null","arrowleft","[0,0,0,0]","","",""
"sailing-instructions","15","229809","0.0-5.0-0.0-4.0","","","","","","","","","","","","","","null","null","null","null","null","null","","","","","","",""
"sailing-comprehension","16","261643","0.0-5.0-0.0-5.0","","","","","","","","","","25509.700000047684","","","","","","","","","","","","","","[""true"",""true"",""false"",""true""]","0",""
"sailing-instructions","17","337451","0.0-6.0-0.0-0.0","","","","","","","","","","","","","","null","null","null","null","null","null","","","","","","",""
"sailing-comprehension","18","366529","0.0-6.0-0.0-1.0","","","","","","","","","","25532.600000023842","","","","","","","","","","","","","","[""true"",""false"",""true""]","0",""
"sailing-instructions","19","384340","0.0-7.0-0.0-0.0","","","","","","","","","","","","","","null","null","null","null","null","null","","","","","","",""
"sailing-trial","20","391260","0.0-7.0-0.0-1.0-0.0","","","","false","","","","","","","","","","null","","3906.7000000476837","","0","0","null","null","arrowup","[0.2,0.8,0.2,0.8]","","",""
"sailing-trial","21","399180","0.0-7.0-0.0-1.0-1.0","","","","false","","","","","","","","","","null","","3376.7999999523163","","1","1","null","null","arrowup","[0.2,0.8,0.2,0.8]","","",""
"sailing-trial","22","406883","0.0-7.0-0.0-1.0-2.0","","","","false","","","","","","","","","","null","","4678.299999952316","","2","0","null","null","arrowup","[0.2,0.8,0.2,0.8]","","",""
"sailing-trial","23","413437","0.0-7.0-0.0-1.0-3.0","","","","false","","","","","","","","","","null","","2644.899999976158","","3","1","null","null","arrowup","[0.2,0.8,0.2,0.8]","","",""
"sailing-comprehension","24","429302","0.0-7.0-0.0-2.0","","","","","","","","","","12282.5","","","","","","","","","","","","","","[""true""]","1",""
"sailing-instructions","25","451739","0.0-7.0-0.1-0.1","","","","","","","","","","","","","","null","null","null","null","null","null","","","","","","",""
"sailing-trial","26","460319","0.0-7.0-0.1-1.1-0.1","","","","false","","","","","","","","","","null","","5536.100000023842","","0","0","null","null","arrowup","[0.2,0.8,0.2,0.8]","","",""
"sailing-trial","27","464215","0.0-7.0-0.1-1.1-1.1","","","","false","","","","","","","","","","null","","1382.6000000238419","","1","1","null","null","arrowup","[0.2,0.8,0.2,0.8]","","",""
"sailing-trial","28","467972","0.0-7.0-0.1-1.1-2.1","","","","false","","","","","","","","","","null","","1339.0999999046326","","2","1","null","null","arrowup","[0.2,0.8,0.2,0.8]","","",""
"sailing-trial","29","471291","0.0-7.0-0.1-1.1-3.1","","","","false","","","","","","","","","","null","","1174.5","","3","1","null","null","arrowup","[0.2,0.8,0.2,0.8]","","",""
"sailing-comprehension","30","482044","0.0-7.0-0.1-2.1","","","","","","","","","","8447.799999952316","","","","","","","","","","","","","","[""false""]","0",""
"sailing-instructions","31","494728","0.0-8.0-0.0-0.0","","","","","","","","","","","","","","null","null","null","null","null","null","","","","","","",""
"sailing-comprehension","32","504648","0.0-8.0-0.0-1.0","","","","","","","","","","5051.100000023842","","","","","","","","","","","","","","[""true""]","0",""
"sailing-instructions","33","529218","0.0-9.0-0.0-0.0","","","","","","","","","","","","","","null","null","null","null","null","null","","","","","","",""
"sailing-trial","34","535846","0.0-9.0-0.0-1.0-0.0","","","","false","","","","","","","","","","1598.5999999046326","","959.1999999284744","","1","1","arrowleft","0","arrowright","[0.2,0.8,0.2,0.8]","","",""
"sailing-trial","35","540981","0.0-9.0-0.0-1.0-1.0","","","","false","","","","","","","","","","1492.2999999523163","","351.10000002384186","","3","0","arrowright","1","arrowright","[0.2,0.8,0.2,0.8]","","",""
"sailing-trial","36","544934","0.0-9.0-0.0-1.0-2.0","","","","false","","","","","","","","","","null","","1661.7000000476837","","0","1","null","null","arrowup","[0.2,0.8,0.2,0.8]","","",""
"sailing-trial","37","550714","0.0-9.0-0.0-1.0-3.0","","","","false","","","","","","","","","","1571.2000000476837","","504.5","","0","0","arrowleft","0","arrowleft","[0.2,0.8,0.2,0.8]","","",""
"sailing-trial","38","554086","0.0-9.0-0.0-1.0-4.0","","","","false","","","","","","","","","","null","","1246.7000000476837","","3","0","null","null","arrowup","[0.2,0.8,0.2,0.8]","","",""
"sailing-trial","39","559002","0.0-9.0-0.0-1.0-5.0","","","","false","","","","","","","","","","1478.6999999284744","","270.5","","2","0","arrowright","1","arrowleft","[0.2,0.8,0.2,0.8]","","",""
"sailing-instructions","40","602498","0.0-10.0","","","","","","","","","","","","","","null","null","null","null","null","null","","","","","","",""
"sailing-trial","41","609190","0.0-11.0-0.0","","","","false","","","","","","","","","","1917.8999999761581","","356.7999999523163","","0","0","arrowleft","0","arrowleft","[0.675,0.325,0.15,0.85]","","",""
"sailing-trial","42","614643","0.0-11.0-1.0","","","","false","","","","","","","","","","null","","3255.899999976158","","3","1","null","null","arrowup","[0.675,0.325,0.15,0.85]","","",""
"sailing-trial","43","620388","0.0-11.0-2.0","","","","false","","","","","","","","","","951.0999999046326","","772.1000000238419","","3","1","arrowright","1","arrowright","[0.675,0.325,0.15,0.85]","","",""
"sailing-trial","44","624480","0.0-11.0-3.0","","","","false","","","","","","","","","","null","","1937.6999999284744","","0","1","null","null","arrowup","[0.675,0.325,0.15,0.85]","","",""
"sailing-trial","45","630398","0.0-11.0-4.0","","","","false","","","","","","","","","","1582.1000000238419","","1119.6000000238419","","1","0","arrowleft","0","arrowright","[0.675,0.325,0.15,0.85]","","",""
"sailing-trial","46","634251","0.0-11.0-5.0","","","","false","","","","","","","","","","null","","1356.9000000953674","","1","0","null","null","arrowup","[0.675,0.325,0.15,0.85]","","",""
"sailing-trial","47","639696","0.0-11.0-6.0","","","","false","","","","","","","","","","1104.3999999761581","","475.60000002384186","","1","0","arrowleft","0","arrowright","[0.675,0.325,0.15,0.85]","","",""
"sailing-trial","48","642590","0.0-11.0-7.0","","","","false","","","","","","","","","","null","","660","","1","1","null","null","arrowup","[0.675,0.325,0.15,0.85]","","",""
"sailing-trial","49","648002","0.0-11.0-8.0","","","","false","","","","","","","","","","2215.7999999523163","","372.10000002384186","","0","0","arrowleft","0","arrowleft","[0.675,0.325,0.15,0.85]","","",""
"sailing-trial","50","651424","0.0-11.0-9.0","","","","false","","","","","","","","","","null","","1383.7000000476837","","1","1","null","null","arrowup","[0.675,0.325,0.15,0.85]","","",""
"sailing-trial","51","657893","0.0-11.0-10.0","","","","false","","","","","","","","","","1046.0999999046326","","1419.1999999284744","","0","0","arrowleft","0","arrowleft","[0.675,0.325,0.15,0.85]","","",""
"sailing-trial","52","660294","0.0-11.0-11.0","","","","false","","","","","","","","","","null","","1116.2999999523163","","0","0","null","null","arrowup","[0.675,0.325,0.15,0.85]","","",""
"sailing-trial","53","664931","0.0-11.0-12.0","","","","false","","","","","","","","","","854.6000000238419","","748","","3","1","arrowright","1","arrowright","[0.675,0.325,0.15,0.85]","","",""
"sailing-trial","54","668816","0.0-11.0-13.0","","","","false","","","","","","","","","","null","","1624.7999999523163","","2","0","null","null","arrowup","[0.675,0.325,0.15,0.85]","","",""
"sailing-trial","55","673973","0.0-11.0-14.0","","","","false","","","","","","","","","","1255.8999999761581","","154.60000002384186","","2","0","arrowright","1","arrowleft","[0.675,0.325,0.15,0.85]","","",""
"sailing-trial","56","676666","0.0-11.0-15.0","","","","false","","","","","","","","","","null","","757.3000000715256","","3","1","null","null","arrowup","[0.675,0.325,0.15,0.85]","","",""
"sailing-trial","57","681390","0.0-11.0-16.0","","","","false","","","","","","","","","","1088.7999999523163","","464.5","","2","0","arrowright","1","arrowleft","[0.675,0.325,0.15,0.85]","","",""
"sailing-trial","58","684711","0.0-11.0-17.0","","","","false","","","","","","","","","","null","","682.6000000238419","","3","0","null","null","arrowup","[0.675,0.325,0.15,0.85]","","",""
"sailing-trial","59","688704","0.0-11.0-18.0","","","","false","","","","","","","","","","611.0999999046326","","190.89999997615814","","3","1","arrowright","1","arrowright","[0.675,0.325,0.15,0.85]","","",""
"sailing-trial","60","691878","0.0-11.0-19.0","","","","false","","","","","","","","","","null","","1124.3000000715256","","1","0","null","null","arrowup","[0.675,0.325,0.15,0.85]","","",""
"sailing-trial","61","695841","0.0-11.0-20.0","","","","false","","","","","","","","","","890.7000000476837","","71.30000007152557","","3","1","arrowright","1","arrowright","[0.85,0.15,0.325,0.675]","","",""
"sailing-trial","62","699292","0.0-11.0-21.0","","","","false","","","","","","","","","","null","","1243.8999999761581","","0","1","null","null","arrowup","[0.85,0.15,0.325,0.675]","","",""
"sailing-trial","63","703760","0.0-11.0-22.0","","","","false","","","","","","","","","","767","","312.7999999523163","","3","1","arrowright","1","arrowright","[0.85,0.15,0.325,0.675]","","",""
"sailing-trial","64","706963","0.0-11.0-23.0","","","","false","","","","","","","","","","null","","1060.6999999284744","","0","1","null","null","arrowup","[0.85,0.15,0.325,0.675]","","",""
"sailing-trial","65","712096","0.0-11.0-24.0","","","","false","","","","","","","","","","693.6000000238419","","426.60000002384186","","3","0","arrowright","1","arrowright","[0.85,0.15,0.325,0.675]","","",""
"sailing-trial","66","716048","0.0-11.0-25.0","","","","false","","","","","","","","","","null","","946.6999999284744","","2","0","null","null","arrowup","[0.85,0.15,0.325,0.675]","","",""
"sailing-trial","67","721516","0.0-11.0-26.0","","","","false","","","","","","","","","","1269.2000000476837","","196.89999997615814","","1","0","arrowleft","0","arrowright","[0.85,0.15,0.325,0.675]","","",""
"sailing-trial","68","724200","0.0-11.0-27.0","","","","false","","","","","","","","","","null","","619","","0","1","null","null","arrowup","[0.85,0.15,0.325,0.675]","","",""
"sailing-trial","69","729070","0.0-11.0-28.0","","","","false","","","","","","","","","","916.2999999523163","","733.2000000476837","","0","1","arrowleft","0","arrowleft","[0.85,0.15,0.325,0.675]","","",""
"sailing-trial","70","732386","0.0-11.0-29.0","","","","false","","","","","","","","","","null","","1148","","0","1","null","null","arrowup","[0.85,0.15,0.325,0.675]","","",""
"sailing-trial","71","737823","0.0-11.0-30.0","","","","false","","","","","","","","","","824.2000000476837","","629.3000000715256","","1","0","arrowleft","0","arrowright","[0.85,0.15,0.325,0.675]","","",""
"sailing-trial","72","741673","0.0-11.0-31.0","","","","false","","","","","","","","","","null","","1095.7999999523163","","1","0","null","null","arrowup","[0.85,0.15,0.325,0.675]","","",""
"sailing-trial","73","745508","0.0-11.0-32.0","","","","false","","","","","","","","","","587.6999999284744","","138","","0","1","arrowleft","0","arrowleft","[0.85,0.15,0.325,0.675]","","",""
"sailing-trial","74","748660","0.0-11.0-33.0","","","","false","","","","","","","","","","null","","1319.1000000238419","","0","1","null","null","arrowup","[0.85,0.15,0.325,0.675]","","",""
"sailing-trial","75","754061","0.0-11.0-34.0","","","","false","","","","","","","","","","791.5999999046326","","605","","0","0","arrowleft","0","arrowleft","[0.85,0.15,0.325,0.675]","","",""
"sailing-trial","76","756662","0.0-11.0-35.0","","","","false","","","","","","","","","","null","","730.1999999284744","","0","1","null","null","arrowup","[0.85,0.15,0.325,0.675]","","",""
"sailing-trial","77","760714","0.0-11.0-36.0","","","","false","","","","","","","","","","875.6000000238419","","159","","3","1","arrowright","1","arrowright","[0.675,0.325,0.15,0.85]","","",""
"sailing-trial","78","763400","0.0-11.0-37.0","","","","false","","","","","","","","","","null","","1059.6000000238419","","1","0","null","null","arrowup","[0.675,0.325,0.15,0.85]","","",""
"sailing-trial","79","767468","0.0-11.0-38.0","","","","false","","","","","","","","","","770.6000000238419","","234.70000004768372","","3","1","arrowright","1","arrowright","[0.675,0.325,0.15,0.85]","","",""
"sailing-trial","80","770502","0.0-11.0-39.0","","","","false","","","","","","","","","","null","","1303.3000000715256","","3","0","null","null","arrowup","[0.675,0.325,0.15,0.85]","","",""
"sailing-trial","81","774496","0.0-11.0-40.0","","","","false","","","","","","","","","","993.7999999523163","","473.7999999523163","","0","0","arrowleft","0","arrowleft","[0.675,0.325,0.15,0.85]","","",""
"sailing-trial","82","777120","0.0-11.0-41.0","","","","false","","","","","","","","","","null","","824.7999999523163","","3","1","null","null","arrowup","[0.675,0.325,0.15,0.85]","","",""
"sailing-trial","83","781940","0.0-11.0-42.0","","","","false","","","","","","","","","","1286.5","","488.7999999523163","","0","1","arrowleft","0","arrowleft","[0.675,0.325,0.15,0.85]","","",""
"sailing-trial","84","784563","0.0-11.0-43.0","","","","false","","","","","","","","","","null","","1046.5","","1","0","null","null","arrowup","[0.675,0.325,0.15,0.85]","","",""
"sailing-trial","85","788675","0.0-11.0-44.0","","","","false","","","","","","","","","","1059.7999999523163","","117.5","","3","1","arrowright","1","arrowright","[0.675,0.325,0.15,0.85]","","",""
"sailing-trial","86","792193","0.0-11.0-45.0","","","","false","","","","","","","","","","null","","1867.1000000238419","","1","0","null","null","arrowup","[0.675,0.325,0.15,0.85]","","",""
"sailing-trial","87","796913","0.0-11.0-46.0","","","","false","","","","","","","","","","928","","616.3999999761581","","0","1","arrowleft","0","arrowleft","[0.675,0.325,0.15,0.85]","","",""
"sailing-trial","88","802196","0.0-11.0-47.0","","","","false","","","","","","","","","","null","","3234.399999976158","","3","1","null","null","arrowup","[0.675,0.325,0.15,0.85]","","",""
"sailing-trial","89","807082","0.0-11.0-48.0","","","","false","","","","","","","","","","1180.7999999523163","","479.60000002384186","","3","1","arrowright","1","arrowright","[0.675,0.325,0.15,0.85]","","",""
"sailing-trial","90","809998","0.0-11.0-49.0","","","","false","","","","","","","","","","null","","887.8999999761581","","0","1","null","null","arrowup","[0.675,0.325,0.15,0.85]","","",""
"sailing-trial","91","815117","0.0-11.0-50.0","","","","false","","","","","","","","","","1494.1000000238419","","638.2000000476837","","3","1","arrowright","1","arrowright","[0.675,0.325,0.15,0.85]","","",""
"sailing-trial","92","818468","0.0-11.0-51.0","","","","false","","","","","","","","","","null","","876.7999999523163","","0","1","null","null","arrowup","[0.675,0.325,0.15,0.85]","","",""
"sailing-trial","93","825065","0.0-11.0-52.0","","","","false","","","","","","","","","","1420.8000000715256","","2090.7000000476837","","0","0","arrowleft","0","arrowleft","[0.675,0.325,0.15,0.85]","","",""
"sailing-trial","94","828972","0.0-11.0-53.0","","","","false","","","","","","","","","","null","","2008.7999999523163","","0","1","null","null","arrowup","[0.675,0.325,0.15,0.85]","","",""
"sailing-trial","95","834443","0.0-11.0-54.0","","","","false","","","","","","","","","","1878.1999999284744","","507.5","","0","1","arrowleft","0","arrowleft","[0.675,0.325,0.15,0.85]","","",""
"sailing-trial","96","836690","0.0-11.0-55.0","","","","false","","","","","","","","","","null","","915.8000000715256","","2","0","null","null","arrowup","[0.675,0.325,0.15,0.85]","","",""
"sailing-trial","97","841627","0.0-11.0-56.0","","","","false","","","","","","","","","","1429.6999999284744","","713.1000000238419","","2","0","arrowright","1","arrowleft","[0.675,0.325,0.15,0.85]","","",""
"sailing-trial","98","844145","0.0-11.0-57.0","","","","false","","","","","","","","","","null","","701.5","","0","1","null","null","arrowup","[0.675,0.325,0.15,0.85]","","",""
"sailing-trial","99","849080","0.0-11.0-58.0","","","","false","","","","","","","","","","970.0999999046326","","341.5","","3","1","arrowright","1","arrowright","[0.85,0.15,0.325,0.675]","","",""
"sailing-trial","100","851432","0.0-11.0-59.0","","","","false","","","","","","","","","","null","","499.6999999284744","","0","1","null","null","arrowup","[0.85,0.15,0.325,0.675]","","",""
"sailing-trial","101","856049","0.0-11.0-60.0","","","","false","","","","","","","","","","1328.5999999046326","","373.89999997615814","","0","1","arrowleft","0","arrowleft","[0.85,0.15,0.325,0.675]","","",""
"sailing-trial","102","859950","0.0-11.0-61.0","","","","false","","","","","","","","","","null","","903.2000000476837","","2","0","null","null","arrowup","[0.85,0.15,0.325,0.675]","","",""
"sailing-trial","103","864786","0.0-11.0-62.0","","","","false","","","","","","","","","","626.5","","226.5","","3","0","arrowright","1","arrowright","[0.85,0.15,0.325,0.675]","","",""
"sailing-trial","104","868637","0.0-11.0-63.0","","","","false","","","","","","","","","","null","","1891.3000000715256","","0","1","null","null","arrowup","[0.85,0.15,0.325,0.675]","","",""
"sailing-trial","105","873891","0.0-11.0-64.0","","","","false","","","","","","","","","","2040.2999999523163","","340.10000002384186","","2","1","arrowright","1","arrowleft","[0.85,0.15,0.325,0.675]","","",""
"sailing-trial","106","877541","0.0-11.0-65.0","","","","false","","","","","","","","","","null","","1171.9000000953674","","2","1","null","null","arrowup","[0.85,0.15,0.325,0.675]","","",""
"sailing-trial","107","881330","0.0-11.0-66.0","","","","false","","","","","","","","","","938.5","","348.5","","2","0","arrowright","1","arrowleft","[0.85,0.15,0.325,0.675]","","",""
"sailing-trial","108","885176","0.0-11.0-67.0","","","","false","","","","","","","","","","null","","527.8000000715256","","0","1","null","null","arrowup","[0.85,0.15,0.325,0.675]","","",""
"sailing-trial","109","889946","0.0-11.0-68.0","","","","false","","","","","","","","","","856.1000000238419","","1004.5","","3","1","arrowright","1","arrowright","[0.85,0.15,0.325,0.675]","","",""
"sailing-trial","110","892781","0.0-11.0-69.0","","","","false","","","","","","","","","","null","","804.5","","2","1","null","null","arrowup","[0.85,0.15,0.325,0.675]","","",""
"sailing-trial","111","896832","0.0-11.0-70.0","","","","false","","","","","","","","","","842.1000000238419","","228.5","","3","1","arrowright","1","arrowright","[0.85,0.15,0.325,0.675]","","",""
"sailing-trial","112","899116","0.0-11.0-71.0","","","","false","","","","","","","","","","null","","468","","2","0","null","null","arrowup","[0.85,0.15,0.325,0.675]","","",""
"sailing-trial","113","904468","0.0-11.0-72.0","","","","false","","","","","","","","","","1248.5","","1223.2999999523163","","0","1","arrowleft","0","arrowleft","[0.85,0.15,0.325,0.675]","","",""
"sailing-trial","114","908237","0.0-11.0-73.0","","","","false","","","","","","","","","","null","","1057.2000000476837","","2","0","null","null","arrowup","[0.85,0.15,0.325,0.675]","","",""
"sailing-trial","115","913136","0.0-11.0-74.0","","","","false","","","","","","","","","","727.3000000715256","","341","","0","0","arrowleft","0","arrowleft","[0.325,0.675,0.85,0.15]","","",""
"sailing-trial","116","915822","0.0-11.0-75.0","","","","false","","","","","","","","","","null","","947.6000000238419","","0","0","null","null","arrowup","[0.325,0.675,0.85,0.15]","","",""
"sailing-trial","117","919941","0.0-11.0-76.0","","","","false","","","","","","","","","","629.7000000476837","","566.3999999761581","","2","1","arrowright","1","arrowleft","[0.325,0.675,0.85,0.15]","","",""
"sailing-trial","118","924244","0.0-11.0-77.0","","","","false","","","","","","","","","","null","","1294.5999999046326","","1","0","null","null","arrowup","[0.325,0.675,0.85,0.15]","","",""
"sailing-trial","119","929310","0.0-11.0-78.0","","","","false","","","","","","","","","","785.1000000238419","","277.39999997615814","","3","0","arrowright","1","arrowright","[0.325,0.675,0.85,0.15]","","",""
"sailing-trial","120","931930","0.0-11.0-79.0","","","","false","","","","","","","","","","null","","763.8999999761581","","2","1","null","null","arrowup","[0.325,0.675,0.85,0.15]","","",""
"sailing-trial","121","936347","0.0-11.0-80.0","","","","false","","","","","","","","","","946.6999999284744","","470.3000000715256","","2","1","arrowright","1","arrowleft","[0.325,0.675,0.85,0.15]","","",""
"sailing-trial","122","939530","0.0-11.0-81.0","","","","false","","","","","","","","","","null","","1295.3999999761581","","2","1","null","null","arrowup","[0.325,0.675,0.85,0.15]","","",""
"sailing-trial","123","944850","0.0-11.0-82.0","","","","false","","","","","","","","","","866.6999999284744","","449.7000000476837","","2","0","arrowright","1","arrowleft","[0.325,0.675,0.85,0.15]","","",""
"sailing-trial","124","947133","0.0-11.0-83.0","","","","false","","","","","","","","","","null","","130.39999997615814","","3","1","null","null","arrowup","[0.325,0.675,0.85,0.15]","","",""
"sailing-trial","125","951091","0.0-11.0-84.0","","","","false","","","","","","","","","","1333","","169","","3","0","arrowright","1","arrowright","[0.325,0.675,0.85,0.15]","","",""
"sailing-trial","126","955437","0.0-11.0-85.0","","","","false","","","","","","","","","","null","","1307.6000000238419","","3","0","null","null","arrowup","[0.325,0.675,0.85,0.15]","","",""
"sailing-trial","127","960438","0.0-11.0-86.0","","","","false","","","","","","","","","","672.1000000238419","","323.1999999284744","","3","0","arrowright","1","arrowright","[0.325,0.675,0.85,0.15]","","",""
"sailing-trial","128","962946","0.0-11.0-87.0","","","","false","","","","","","","","","","null","","291.60000002384186","","1","0","null","null","arrowup","[0.325,0.675,0.85,0.15]","","",""
"sailing-trial","129","967291","0.0-11.0-88.0","","","","false","","","","","","","","","","648.2999999523163","","691.2999999523163","","1","1","arrowleft","0","arrowright","[0.325,0.675,0.85,0.15]","","",""
"sailing-trial","130","971494","0.0-11.0-89.0","","","","false","","","","","","","","","","null","","1206","","3","0","null","null","arrowup","[0.325,0.675,0.85,0.15]","","",""
"sailing-trial","131","975612","0.0-11.0-90.0","","","","false","","","","","","","","","","1038.9000000953674","","98.29999995231628","","1","1","arrowleft","0","arrowright","[0.325,0.675,0.85,0.15]","","",""
"sailing-trial","132","978659","0.0-11.0-91.0","","","","false","","","","","","","","","","null","","1214.8999999761581","","3","0","null","null","arrowup","[0.325,0.675,0.85,0.15]","","",""
"sailing-trial","133","983017","0.0-11.0-92.0","","","","false","","","","","","","","","","888.1000000238419","","911.4000000953674","","1","0","arrowleft","0","arrowright","[0.15,0.85,0.675,0.325]","","",""
"sailing-trial","134","985764","0.0-11.0-93.0","","","","false","","","","","","","","","","null","","869.3999999761581","","1","1","null","null","arrowup","[0.15,0.85,0.675,0.325]","","",""
"sailing-trial","135","990900","0.0-11.0-94.0","","","","false","","","","","","","","","","2022.3999999761581","","257.2999999523163","","0","1","arrowleft","0","arrowleft","[0.15,0.85,0.675,0.325]","","",""
"sailing-trial","136","993633","0.0-11.0-95.0","","","","false","","","","","","","","","","null","","788","","2","1","null","null","arrowup","[0.15,0.85,0.675,0.325]","","",""
"sailing-trial","137","998449","0.0-11.0-96.0","","","","false","","","","","","","","","","1208.5","","415","","0","0","arrowleft","0","arrowleft","[0.15,0.85,0.675,0.325]","","",""
"sailing-trial","138","1001086","0.0-11.0-97.0","","","","false","","","","","","","","","","null","","607.6999999284744","","1","1","null","null","arrowup","[0.15,0.85,0.675,0.325]","","",""
"sailing-trial","139","1005339","0.0-11.0-98.0","","","","false","","","","","","","","","","1058.7000000476837","","272","","1","1","arrowleft","0","arrowright","[0.15,0.85,0.675,0.325]","","",""
"sailing-trial","140","1007484","0.0-11.0-99.0","","","","false","","","","","","","","","","null","","637.1000000238419","","3","0","null","null","arrowup","[0.15,0.85,0.675,0.325]","","",""
"sailing-trial","141","1012679","0.0-11.0-100.0","","","","false","","","","","","","","","","922.3000000715256","","465.89999997615814","","0","0","arrowleft","0","arrowleft","[0.15,0.85,0.675,0.325]","","",""
"sailing-trial","142","1015150","0.0-11.0-101.0","","","","false","","","","","","","","","","null","","495.6999999284744","","2","0","null","null","arrowup","[0.15,0.85,0.675,0.325]","","",""
"sailing-trial","143","1018392","0.0-11.0-102.0","","","","false","","","","","","","","","","852.7000000476837","","167.89999997615814","","3","0","arrowright","1","arrowright","[0.15,0.85,0.675,0.325]","","",""
"sailing-trial","144","1021727","0.0-11.0-103.0","","","","false","","","","","","","","","","null","","1246.3999999761581","","1","1","null","null","arrowup","[0.15,0.85,0.675,0.325]","","",""
"sailing-trial","145","1026598","0.0-11.0-104.0","","","","false","","","","","","","","","","1246.5999999046326","","320.89999997615814","","2","1","arrowright","1","arrowleft","[0.15,0.85,0.675,0.325]","","",""
"sailing-trial","146","1029697","0.0-11.0-105.0","","","","false","","","","","","","","","","null","","1269.6000000238419","","2","1","null","null","arrowup","[0.15,0.85,0.675,0.325]","","",""
"sailing-trial","147","1034067","0.0-11.0-106.0","","","","false","","","","","","","","","","1025.7999999523163","","450.3000000715256","","2","1","arrowright","1","arrowleft","[0.15,0.85,0.675,0.325]","","",""
"sailing-trial","148","1036651","0.0-11.0-107.0","","","","false","","","","","","","","","","null","","721.2999999523163","","2","1","null","null","arrowup","[0.15,0.85,0.675,0.325]","","",""
"sailing-trial","149","1041452","0.0-11.0-108.0","","","","false","","","","","","","","","","1179.5","","598.8000000715256","","2","1","arrowright","1","arrowleft","[0.15,0.85,0.675,0.325]","","",""
"sailing-trial","150","1045154","0.0-11.0-109.0","","","","false","","","","","","","","","","null","","698","","2","0","null","null","arrowup","[0.15,0.85,0.675,0.325]","","",""
"sailing-trial","151","1048643","0.0-11.0-110.0","","","","false","","","","","","","","","","674.2000000476837","","101.10000002384186","","3","0","arrowright","1","arrowright","[0.325,0.675,0.85,0.15]","","",""
"sailing-trial","152","1051205","0.0-11.0-111.0","","","","false","","","","","","","","","","null","","662.8999999761581","","1","1","null","null","arrowup","[0.325,0.675,0.85,0.15]","","",""
"sailing-trial","153","1055593","0.0-11.0-112.0","","","","false","","","","","","","","","","1096.3999999761581","","373.89999997615814","","1","1","arrowleft","0","arrowright","[0.325,0.675,0.85,0.15]","","",""
"sailing-trial","154","1058574","0.0-11.0-113.0","","","","false","","","","","","","","","","null","","719.5","","0","0","null","null","arrowup","[0.325,0.675,0.85,0.15]","","",""
"sailing-trial","155","1063728","0.0-11.0-114.0","","","","false","","","","","","","","","","902.6000000238419","","529.0999999046326","","0","0","arrowleft","0","arrowleft","[0.325,0.675,0.85,0.15]","","",""
"sailing-trial","156","1066241","0.0-11.0-115.0","","","","false","","","","","","","","","","null","","627.7000000476837","","0","0","null","null","arrowup","[0.325,0.675,0.85,0.15]","","",""
"sailing-trial","157","1070431","0.0-11.0-116.0","","","","false","","","","","","","","","","1235.5999999046326","","149.70000004768372","","1","1","arrowleft","0","arrowright","[0.325,0.675,0.85,0.15]","","",""
"sailing-trial","158","1073564","0.0-11.0-117.0","","","","false","","","","","","","","","","null","","1283.1000000238419","","1","1","null","null","arrowup","[0.325,0.675,0.85,0.15]","","",""
"sailing-trial","159","1077932","0.0-11.0-118.0","","","","false","","","","","","","","","","1116.3999999761581","","234.39999997615814","","1","1","arrowleft","0","arrowright","[0.325,0.675,0.85,0.15]","","",""
"sailing-trial","160","1080459","0.0-11.0-119.0","","","","false","","","","","","","","","","null","","532.9000000953674","","0","0","null","null","arrowup","[0.325,0.675,0.85,0.15]","","",""
"sailing-trial","161","1084086","0.0-11.0-120.0","","","","false","","","","","","","","","","521.5","","114.60000002384186","","3","0","arrowright","1","arrowright","[0.325,0.675,0.85,0.15]","","",""
"sailing-trial","162","1087102","0.0-11.0-121.0","","","","false","","","","","","","","","","null","","1020.5","","2","1","null","null","arrowup","[0.325,0.675,0.85,0.15]","","",""
"sailing-trial","163","1090685","0.0-11.0-122.0","","","","false","","","","","","","","","","737","","364.89999997615814","","0","0","arrowleft","0","arrowleft","[0.325,0.675,0.85,0.15]","","",""
"sailing-trial","164","1092996","0.0-11.0-123.0","","","","false","","","","","","","","","","null","","927.3000000715256","","0","0","null","null","arrowup","[0.325,0.675,0.85,0.15]","","",""
"sailing-trial","165","1097572","0.0-11.0-124.0","","","","false","","","","","","","","","","1060.3999999761581","","238.60000002384186","","1","1","arrowleft","0","arrowright","[0.325,0.675,0.85,0.15]","","",""
"sailing-trial","166","1099590","0.0-11.0-125.0","","","","false","","","","","","","","","","null","","93.39999997615814","","2","1","null","null","arrowup","[0.325,0.675,0.85,0.15]","","",""
"sailing-trial","167","1103674","0.0-11.0-126.0","","","","false","","","","","","","","","","1077.5","","222.39999997615814","","1","1","arrowleft","0","arrowright","[0.325,0.675,0.85,0.15]","","",""
"sailing-trial","168","1106014","0.0-11.0-127.0","","","","false","","","","","","","","","","null","","674.4000000953674","","3","0","null","null","arrowup","[0.325,0.675,0.85,0.15]","","",""
"sailing-trial","169","1109877","0.0-11.0-128.0","","","","false","","","","","","","","","","858.2999999523163","","264.5","","1","1","arrowleft","0","arrowright","[0.325,0.675,0.85,0.15]","","",""
"sailing-trial","170","1113831","0.0-11.0-129.0","","","","false","","","","","","","","","","null","","954.7000000476837","","2","0","null","null","arrowup","[0.325,0.675,0.85,0.15]","","",""
"sailing-trial","171","1119180","0.0-11.0-130.0","","","","false","","","","","","","","","","1361.1000000238419","","853.6999999284744","","1","1","arrowleft","0","arrowright","[0.15,0.85,0.675,0.325]","","",""
"sailing-trial","172","1121533","0.0-11.0-131.0","","","","false","","","","","","","","","","null","","574.2000000476837","","0","0","null","null","arrowup","[0.15,0.85,0.675,0.325]","","",""
"sailing-trial","173","1126450","0.0-11.0-132.0","","","","false","","","","","","","","","","1374.9000000953674","","480.1999999284744","","3","1","arrowright","1","arrowright","[0.15,0.85,0.675,0.325]","","",""
"sailing-trial","174","1129178","0.0-11.0-133.0","","","","false","","","","","","","","","","null","","1240","","0","0","null","null","arrowup","[0.15,0.85,0.675,0.325]","","",""
"sailing-trial","175","1134220","0.0-11.0-134.0","","","","false","","","","","","","","","","654.3999999761581","","1490.8999999761581","","3","1","arrowright","1","arrowright","[0.15,0.85,0.675,0.325]","","",""
"sailing-trial","176","1136086","0.0-11.0-135.0","","","","false","","","","","","","","","","null","","511","","2","0","null","null","arrowup","[0.15,0.85,0.675,0.325]","","",""
"sailing-trial","177","1139667","0.0-11.0-136.0","","","","false","","","","","","","","","","870.5","","368.2000000476837","","0","0","arrowleft","0","arrowleft","[0.15,0.85,0.675,0.325]","","",""
"sailing-trial","178","1143149","0.0-11.0-137.0","","","","false","","","","","","","","","","null","","1782.7999999523163","","0","0","null","null","arrowup","[0.15,0.85,0.675,0.325]","","",""
"sailing-trial","179","1147942","0.0-11.0-138.0","","","","false","","","","","","","","","","1350.5","","258.39999997615814","","1","1","arrowleft","0","arrowright","[0.15,0.85,0.675,0.325]","","",""
"sailing-trial","180","1151092","0.0-11.0-139.0","","","","false","","","","","","","","","","null","","1247.8999999761581","","2","1","null","null","arrowup","[0.15,0.85,0.675,0.325]","","",""
"sailing-trial","181","1155812","0.0-11.0-140.0","","","","false","","","","","","","","","","1046.7000000476837","","382.3000000715256","","1","1","arrowleft","0","arrowright","[0.15,0.85,0.675,0.325]","","",""
"sailing-trial","182","1158361","0.0-11.0-141.0","","","","false","","","","","","","","","","null","","710.6000000238419","","1","1","null","null","arrowup","[0.15,0.85,0.675,0.325]","","",""
"sailing-trial","183","1162497","0.0-11.0-142.0","","","","false","","","","","","","","","","1155.1999999284744","","193.10000002384186","","1","1","arrowleft","0","arrowright","[0.15,0.85,0.675,0.325]","","",""
"sailing-trial","184","1164901","0.0-11.0-143.0","","","","false","","","","","","","","","","null","","905.6000000238419","","0","0","null","null","arrowup","[0.15,0.85,0.675,0.325]","","",""
"sailing-trial","185","1169132","0.0-11.0-144.0","","","","false","","","","","","","","","","1036.5999999046326","","217.5","","1","1","arrowleft","0","arrowright","[0.15,0.85,0.675,0.325]","","",""
"sailing-trial","186","1171232","0.0-11.0-145.0","","","","false","","","","","","","","","","null","","610.6000000238419","","0","0","null","null","arrowup","[0.15,0.85,0.675,0.325]","","",""
"sailing-trial","187","1174766","0.0-11.0-146.0","","","","false","","","","","","","","","","870.2999999523163","","76.29999995231628","","3","0","arrowright","1","arrowright","[0.325,0.675,0.85,0.15]","","",""
"sailing-trial","188","1177275","0.0-11.0-147.0","","","","false","","","","","","","","","","null","","1058.7000000476837","","1","0","null","null","arrowup","[0.325,0.675,0.85,0.15]","","",""
"sailing-trial","189","1181638","0.0-11.0-148.0","","","","false","","","","","","","","","","890.5","","454.09999990463257","","2","1","arrowright","1","arrowleft","[0.325,0.675,0.85,0.15]","","",""
"sailing-trial","190","1184971","0.0-11.0-149.0","","","","false","","","","","","","","","","null","","1398.9000000953674","","2","1","null","null","arrowup","[0.325,0.675,0.85,0.15]","","",""
"sailing-trial","191","1189447","0.0-11.0-150.0","","","","false","","","","","","","","","","1292.4000000953674","","581.2999999523163","","2","0","arrowright","1","arrowleft","[0.325,0.675,0.85,0.15]","","",""
"sailing-trial","192","1192023","0.0-11.0-151.0","","","","false","","","","","","","","","","null","","603.5","","1","1","null","null","arrowup","[0.325,0.675,0.85,0.15]","","",""
"sailing-trial","193","1195869","0.0-11.0-152.0","","","","false","","","","","","","","","","894.8000000715256","","427.5","","3","0","arrowright","1","arrowright","[0.325,0.675,0.85,0.15]","","",""
"sailing-trial","194","1199591","0.0-11.0-153.0","","","","false","","","","","","","","","","null","","1868","","3","0","null","null","arrowup","[0.325,0.675,0.85,0.15]","","",""
"sailing-trial","195","1202779","0.0-11.0-154.0","","","","false","","","","","","","","","","483.7000000476837","","225.20000004768372","","0","0","arrowleft","0","arrowleft","[0.325,0.675,0.85,0.15]","","",""
"sailing-trial","196","1205781","0.0-11.0-155.0","","","","false","","","","","","","","","","null","","1113.3999999761581","","1","1","null","null","arrowup","[0.325,0.675,0.85,0.15]","","",""
"sailing-trial","197","1209661","0.0-11.0-156.0","","","","false","","","","","","","","","","685.7000000476837","","843.5","","2","0","arrowright","1","arrowleft","[0.325,0.675,0.85,0.15]","","",""
"sailing-trial","198","1212699","0.0-11.0-157.0","","","","false","","","","","","","","","","null","","933","","0","1","null","null","arrowup","[0.325,0.675,0.85,0.15]","","",""
"sailing-trial","199","1216709","0.0-11.0-158.0","","","","false","","","","","","","","","","1086.2000000476837","","137.40000009536743","","1","0","arrowleft","0","arrowright","[0.325,0.675,0.85,0.15]","","",""
"sailing-trial","200","1219732","0.0-11.0-159.0","","","","false","","","","","","","","","","null","","1400","","3","0","null","null","arrowup","[0.325,0.675,0.85,0.15]","","",""
"sailing-trial","201","1224595","0.0-11.0-160.0","","","","false","","","","","","","","","","910.7999999523163","","1204.3000000715256","","3","0","arrowright","1","arrowright","[0.325,0.675,0.85,0.15]","","",""
"sailing-trial","202","1227354","0.0-11.0-161.0","","","","false","","","","","","","","","","null","","806.6000000238419","","2","1","null","null","arrowup","[0.325,0.675,0.85,0.15]","","",""
"sailing-trial","203","1231197","0.0-11.0-162.0","","","","false","","","","","","","","","","951.5","","186.39999997615814","","2","0","arrowright","1","arrowleft","[0.15,0.85,0.675,0.325]","","",""
"sailing-trial","204","1234072","0.0-11.0-163.0","","","","false","","","","","","","","","","null","","966.0999999046326","","3","0","null","null","arrowup","[0.15,0.85,0.675,0.325]","","",""
"sailing-trial","205","1237721","0.0-11.0-164.0","","","","false","","","","","","","","","","523.8999999761581","","745","","0","0","arrowleft","0","arrowleft","[0.15,0.85,0.675,0.325]","","",""
"sailing-trial","206","1240842","0.0-11.0-165.0","","","","false","","","","","","","","","","null","","1067","","3","1","null","null","arrowup","[0.15,0.85,0.675,0.325]","","",""
"sailing-trial","207","1245594","0.0-11.0-166.0","","","","false","","","","","","","","","","656.1000000238419","","1046.2999999523163","","1","1","arrowleft","0","arrowright","[0.15,0.85,0.675,0.325]","","",""
"sailing-trial","208","1248512","0.0-11.0-167.0","","","","false","","","","","","","","","","null","","874.2000000476837","","2","1","null","null","arrowup","[0.15,0.85,0.675,0.325]","","",""
"sailing-trial","209","1252664","0.0-11.0-168.0","","","","false","","","","","","","","","","957.2000000476837","","226.60000002384186","","1","1","arrowleft","0","arrowright","[0.15,0.85,0.675,0.325]","","",""
"sailing-trial","210","1255421","0.0-11.0-169.0","","","","false","","","","","","","","","","null","","897.8999999761581","","3","0","null","null","arrowup","[0.15,0.85,0.675,0.325]","","",""
"sailing-trial","211","1259501","0.0-11.0-170.0","","","","false","","","","","","","","","","972.6000000238419","","40.40000009536743","","1","1","arrowleft","0","arrowright","[0.15,0.85,0.675,0.325]","","",""
"sailing-trial","212","1262384","0.0-11.0-171.0","","","","false","","","","","","","","","","null","","888.2999999523163","","2","1","null","null","arrowup","[0.15,0.85,0.675,0.325]","","",""
"sailing-trial","213","1267070","0.0-11.0-172.0","","","","false","","","","","","","","","","984.1000000238419","","533.3999999761581","","1","1","arrowleft","0","arrowright","[0.15,0.85,0.675,0.325]","","",""
"sailing-trial","214","1271053","0.0-11.0-173.0","","","","false","","","","","","","","","","null","","988.5999999046326","","0","0","null","null","arrowup","[0.15,0.85,0.675,0.325]","","",""
"sailing-trial","215","1274571","0.0-11.0-174.0","","","","false","","","","","","","","","","507.90000009536743","","222.30000007152557","","1","1","arrowleft","0","arrowright","[0.15,0.85,0.675,0.325]","","",""
"sailing-trial","216","1277724","0.0-11.0-175.0","","","","false","","","","","","","","","","null","","1341.6999999284744","","1","1","null","null","arrowup","[0.15,0.85,0.675,0.325]","","",""
"sailing-trial","217","1282358","0.0-11.0-176.0","","","","false","","","","","","","","","","1160.1000000238419","","631.2999999523163","","1","1","arrowleft","0","arrowright","[0.15,0.85,0.675,0.325]","","",""
"sailing-trial","218","1284960","0.0-11.0-177.0","","","","false","","","","","","","","","","null","","702.3999999761581","","1","1","null","null","arrowup","[0.15,0.85,0.675,0.325]","","",""
"sailing-trial","219","1289628","0.0-11.0-178.0","","","","false","","","","","","","","","","1108.5","","347","","1","1","arrowleft","0","arrowright","[0.325,0.675,0.85,0.15]","","",""
"sailing-trial","220","1292145","0.0-11.0-179.0","","","","false","","","","","","","","","","null","","615.1999999284744","","1","1","null","null","arrowup","[0.325,0.675,0.85,0.15]","","",""
"sailing-trial","221","1296179","0.0-11.0-180.0","","","","false","","","","","","","","","","910.7000000476837","","499.7999999523163","","1","1","arrowleft","0","arrowright","[0.325,0.675,0.85,0.15]","","",""
"sailing-trial","222","1299080","0.0-11.0-181.0","","","","false","","","","","","","","","","null","","912.6000000238419","","2","1","null","null","arrowup","[0.325,0.675,0.85,0.15]","","",""
"sailing-trial","223","1303332","0.0-11.0-182.0","","","","false","","","","","","","","","","1099.5","","122","","1","1","arrowleft","0","arrowright","[0.325,0.675,0.85,0.15]","","",""
"sailing-trial","224","1307136","0.0-11.0-183.0","","","","false","","","","","","","","","","null","","1293.3999999761581","","0","0","null","null","arrowup","[0.325,0.675,0.85,0.15]","","",""
"sailing-trial","225","1311782","0.0-11.0-184.0","","","","false","","","","","","","","","","1026.6999999284744","","863.2000000476837","","3","0","arrowright","1","arrowright","[0.325,0.675,0.85,0.15]","","",""
"sailing-trial","226","1314366","0.0-11.0-185.0","","","","false","","","","","","","","","","null","","1170.6000000238419","","3","0","null","null","arrowup","[0.325,0.675,0.85,0.15]","","",""
"sailing-trial","227","1317845","0.0-11.0-186.0","","","","false","","","","","","","","","","936","","272.10000002384186","","2","0","arrowright","1","arrowleft","[0.325,0.675,0.85,0.15]","","",""
"sailing-trial","228","1320817","0.0-11.0-187.0","","","","false","","","","","","","","","","null","","1166.8999999761581","","0","0","null","null","arrowup","[0.325,0.675,0.85,0.15]","","",""
"sailing-trial","229","1324691","0.0-11.0-188.0","","","","false","","","","","","","","","","993.0999999046326","","64.69999992847443","","1","1","arrowleft","0","arrowright","[0.325,0.675,0.85,0.15]","","",""
"sailing-trial","230","1328911","0.0-11.0-189.0","","","","false","","","","","","","","","","null","","1222.8999999761581","","0","0","null","null","arrowup","[0.325,0.675,0.85,0.15]","","",""
"sailing-trial","231","1333160","0.0-11.0-190.0","","","","false","","","","","","","","","","650.1999999284744","","505","","3","1","arrowright","1","arrowright","[0.325,0.675,0.85,0.15]","","",""
"sailing-trial","232","1336784","0.0-11.0-191.0","","","","false","","","","","","","","","","null","","2029.7000000476837","","0","0","null","null","arrowup","[0.325,0.675,0.85,0.15]","","",""
"sailing-trial","233","1340680","0.0-11.0-192.0","","","","false","","","","","","","","","","1118.8999999761581","","33.300000071525574","","1","1","arrowleft","0","arrowright","[0.325,0.675,0.85,0.15]","","",""
"sailing-trial","234","1343888","0.0-11.0-193.0","","","","false","","","","","","","","","","null","","925.3999999761581","","0","0","null","null","arrowup","[0.325,0.675,0.85,0.15]","","",""
"sailing-trial","235","1347734","0.0-11.0-194.0","","","","false","","","","","","","","","","863.5","","159.70000004768372","","1","1","arrowleft","0","arrowright","[0.325,0.675,0.85,0.15]","","",""
"sailing-trial","236","1350147","0.0-11.0-195.0","","","","false","","","","","","","","","","null","","916","","0","0","null","null","arrowup","[0.325,0.675,0.85,0.15]","","",""
"sailing-trial","237","1354002","0.0-11.0-196.0","","","","false","","","","","","","","","","893.6000000238419","","166.80000007152557","","1","1","arrowleft","0","arrowright","[0.325,0.675,0.85,0.15]","","",""
"sailing-trial","238","1357487","0.0-11.0-197.0","","","","false","","","","","","","","","","null","","1265.6000000238419","","1","1","null","null","arrowup","[0.325,0.675,0.85,0.15]","","",""
"sailing-trial","239","1361726","0.0-11.0-198.0","","","","false","","","","","","","","","","983.2999999523163","","720.6999999284744","","1","0","arrowleft","0","arrowright","[0.675,0.325,0.15,0.85]","","",""
"sailing-trial","240","1364872","0.0-11.0-199.0","","","","false","","","","","","","","","","null","","1236.2999999523163","","1","1","null","null","arrowup","[0.675,0.325,0.15,0.85]","","",""
"sailing-trial","241","1368700","0.0-11.0-200.0","","","","false","","","","","","","","","","1407.1999999284744","","141.09999990463257","","1","0","arrowleft","0","arrowright","[0.675,0.325,0.15,0.85]","","",""
"sailing-trial","242","1371759","0.0-11.0-201.0","","","","false","","","","","","","","","","null","","1092","","0","1","null","null","arrowup","[0.675,0.325,0.15,0.85]","","",""
"sailing-trial","243","1376709","0.0-11.0-202.0","","","","false","","","","","","","","","","675","","1357.3999999761581","","0","1","arrowleft","0","arrowleft","[0.675,0.325,0.15,0.85]","","",""
"sailing-trial","244","1379910","0.0-11.0-203.0","","","","false","","","","","","","","","","null","","957.1999999284744","","1","1","null","null","arrowup","[0.675,0.325,0.15,0.85]","","",""
"sailing-trial","245","1383995","0.0-11.0-204.0","","","","false","","","","","","","","","","655.7999999523163","","173.90000009536743","","0","1","arrowleft","0","arrowleft","[0.675,0.325,0.15,0.85]","","",""
"sailing-trial","246","1386998","0.0-11.0-205.0","","","","false","","","","","","","","","","null","","882","","3","1","null","null","arrowup","[0.675,0.325,0.15,0.85]","","",""
"sailing-trial","247","1390349","0.0-11.0-206.0","","","","false","","","","","","","","","","629.6000000238419","","389.89999997615814","","0","0","arrowleft","0","arrowleft","[0.675,0.325,0.15,0.85]","","",""
"sailing-trial","248","1393415","0.0-11.0-207.0","","","","false","","","","","","","","","","null","","977.2999999523163","","3","1","null","null","arrowup","[0.675,0.325,0.15,0.85]","","",""
"sailing-trial","249","1397500","0.0-11.0-208.0","","","","false","","","","","","","","","","887","","260.6999999284744","","3","1","arrowright","1","arrowright","[0.675,0.325,0.15,0.85]","","",""
"sailing-trial","250","1400362","0.0-11.0-209.0","","","","false","","","","","","","","","","null","","1171.5","","1","0","null","null","arrowup","[0.675,0.325,0.15,0.85]","","",""
"sailing-trial","251","1404253","0.0-11.0-210.0","","","","false","","","","","","","","","","630.2999999523163","","131.20000004768372","","3","1","arrowright","1","arrowright","[0.675,0.325,0.15,0.85]","","",""
"sailing-trial","252","1406556","0.0-11.0-211.0","","","","false","","","","","","","","","","null","","758.3999999761581","","2","0","null","null","arrowup","[0.675,0.325,0.15,0.85]","","",""
"sailing-trial","253","1410013","0.0-11.0-212.0","","","","false","","","","","","","","","","683.6000000238419","","65.39999997615814","","2","0","arrowright","1","arrowleft","[0.675,0.325,0.15,0.85]","","",""
"sailing-trial","254","1413090","0.0-11.0-213.0","","","","false","","","","","","","","","","null","","1129.1999999284744","","3","1","null","null","arrowup","[0.675,0.325,0.15,0.85]","","",""
"sailing-trial","255","1416907","0.0-11.0-214.0","","","","false","","","","","","","","","","699","","193.90000009536743","","3","1","arrowright","1","arrowright","[0.675,0.325,0.15,0.85]","","",""
"sailing-trial","256","1420089","0.0-11.0-215.0","","","","false","","","","","","","","","","null","","1697.6999999284744","","1","0","null","null","arrowup","[0.675,0.325,0.15,0.85]","","",""
"sailing-trial","257","1424678","0.0-11.0-216.0","","","","false","","","","","","","","","","1339.3999999761581","","422.7000000476837","","1","1","arrowleft","0","arrowright","[0.15,0.85,0.675,0.325]","","",""
"sailing-trial","258","1427880","0.0-11.0-217.0","","","","false","","","","","","","","","","null","","997.8999999761581","","3","1","null","null","arrowup","[0.15,0.85,0.675,0.325]","","",""
"sailing-trial","259","1433163","0.0-11.0-218.0","","","","false","","","","","","","","","","1039","","1149.1000000238419","","1","1","arrowleft","0","arrowright","[0.15,0.85,0.675,0.325]","","",""
"sailing-trial","260","1435615","0.0-11.0-219.0","","","","false","","","","","","","","","","null","","576","","1","1","null","null","arrowup","[0.15,0.85,0.675,0.325]","","",""
"sailing-trial","261","1441125","0.0-11.0-220.0","","","","false","","","","","","","","","","1139","","393.40000009536743","","1","0","arrowleft","0","arrowright","[0.15,0.85,0.675,0.325]","","",""
"sailing-trial","262","1443144","0.0-11.0-221.0","","","","false","","","","","","","","","","null","","552.7999999523163","","0","0","null","null","arrowup","[0.15,0.85,0.675,0.325]","","",""
"sailing-trial","263","1446707","0.0-11.0-222.0","","","","false","","","","","","","","","","681.3999999761581","","133.5","","3","0","arrowright","1","arrowright","[0.15,0.85,0.675,0.325]","","",""
"sailing-trial","264","1451370","0.0-11.0-223.0","","","","false","","","","","","","","","","null","","1663.5","","0","0","null","null","arrowup","[0.15,0.85,0.675,0.325]","","",""
"sailing-trial","265","1454944","0.0-11.0-224.0","","","","false","","","","","","","","","","850.1999999284744","","167.70000004768372","","0","0","arrowleft","0","arrowleft","[0.15,0.85,0.675,0.325]","","",""
"sailing-trial","266","1457250","0.0-11.0-225.0","","","","false","","","","","","","","","","null","","923.1000000238419","","0","0","null","null","arrowup","[0.15,0.85,0.675,0.325]","","",""
"sailing-trial","267","1461308","0.0-11.0-226.0","","","","false","","","","","","","","","","1052","","212.10000002384186","","1","1","arrowleft","0","arrowright","[0.15,0.85,0.675,0.325]","","",""
"sailing-trial","268","1465227","0.0-11.0-227.0","","","","false","","","","","","","","","","null","","914.3999999761581","","0","0","null","null","arrowup","[0.15,0.85,0.675,0.325]","","",""
"sailing-trial","269","1469427","0.0-11.0-228.0","","","","false","","","","","","","","","","434.60000002384186","","977.1999999284744","","1","1","arrowleft","0","arrowright","[0.15,0.85,0.675,0.325]","","",""
"sailing-trial","270","1471782","0.0-11.0-229.0","","","","false","","","","","","","","","","null","","1070.1000000238419","","3","0","null","null","arrowup","[0.15,0.85,0.675,0.325]","","",""
"sailing-trial","271","1477096","0.0-11.0-230.0","","","","false","","","","","","","","","","1203.7000000476837","","1289.8999999761581","","1","1","arrowleft","0","arrowright","[0.15,0.85,0.675,0.325]","","",""
"sailing-trial","272","1479839","0.0-11.0-231.0","","","","false","","","","","","","","","","null","","1109.7000000476837","","3","0","null","null","arrowup","[0.15,0.85,0.675,0.325]","","",""
"sailing-trial","273","1484217","0.0-11.0-232.0","","","","false","","","","","","","","","","984.8000000715256","","381.7000000476837","","1","1","arrowleft","0","arrowright","[0.15,0.85,0.675,0.325]","","",""
"sailing-trial","274","1487151","0.0-11.0-233.0","","","","false","","","","","","","","","","null","","1008.8999999761581","","2","1","null","null","arrowup","[0.15,0.85,0.675,0.325]","","",""
"sailing-trial","275","1491736","0.0-11.0-234.0","","","","false","","","","","","","","","","1111.9000000953674","","498.39999997615814","","1","1","arrowleft","0","arrowright","[0.325,0.675,0.85,0.15]","","",""
"sailing-trial","276","1494083","0.0-11.0-235.0","","","","false","","","","","","","","","","null","","881.7999999523163","","2","0","null","null","arrowup","[0.325,0.675,0.85,0.15]","","",""
"sailing-trial","277","1498205","0.0-11.0-236.0","","","","false","","","","","","","","","","884.8999999761581","","379.2999999523163","","1","1","arrowleft","0","arrowright","[0.325,0.675,0.85,0.15]","","",""
"sailing-trial","278","1501156","0.0-11.0-237.0","","","","false","","","","","","","","","","null","","1036.6000000238419","","2","1","null","null","arrowup","[0.325,0.675,0.85,0.15]","","",""
"sailing-trial","279","1505174","0.0-11.0-238.0","","","","false","","","","","","","","","","1021.2999999523163","","218.80000007152557","","1","1","arrowleft","0","arrowright","[0.325,0.675,0.85,0.15]","","",""
"sailing-trial","280","1507857","0.0-11.0-239.0","","","","false","","","","","","","","","","null","","868.2000000476837","","0","1","null","null","arrowup","[0.325,0.675,0.85,0.15]","","",""
"sailing-trial","281","1512377","0.0-11.0-240.0","","","","false","","","","","","","","","","1044.5","","710.5","","1","1","arrowleft","0","arrowright","[0.325,0.675,0.85,0.15]","","",""
"sailing-trial","282","1515132","0.0-11.0-241.0","","","","false","","","","","","","","","","null","","1131.8999999761581","","3","0","null","null","arrowup","[0.325,0.675,0.85,0.15]","","",""
"sailing-trial","283","1518931","0.0-11.0-242.0","","","","false","","","","","","","","","","1037.7999999523163","","75.29999995231628","","1","0","arrowleft","0","arrowright","[0.325,0.675,0.85,0.15]","","",""
"sailing-trial","284","1522148","0.0-11.0-243.0","","","","false","","","","","","","","","","null","","1147.1000000238419","","2","1","null","null","arrowup","[0.325,0.675,0.85,0.15]","","",""
"sailing-trial","285","1526053","0.0-11.0-244.0","","","","false","","","","","","","","","","1000.8000000715256","","258.39999997615814","","0","0","arrowleft","0","arrowleft","[0.325,0.675,0.85,0.15]","","",""
"sailing-trial","286","1529001","0.0-11.0-245.0","","","","false","","","","","","","","","","null","","1027.3999999761581","","3","1","null","null","arrowup","[0.325,0.675,0.85,0.15]","","",""
"sailing-trial","287","1532251","0.0-11.0-246.0","","","","false","","","","","","","","","","813.1999999284744","","78","","3","0","arrowright","1","arrowright","[0.325,0.675,0.85,0.15]","","",""
"sailing-trial","288","1534697","0.0-11.0-247.0","","","","false","","","","","","","","","","null","","1099.2000000476837","","3","0","null","null","arrowup","[0.325,0.675,0.85,0.15]","","",""
"sailing-trial","289","1538081","0.0-11.0-248.0","","","","false","","","","","","","","","","767.6000000238419","","27.299999952316284","","2","0","arrowright","1","arrowleft","[0.325,0.675,0.85,0.15]","","",""
"sailing-trial","290","1541003","0.0-11.0-249.0","","","","false","","","","","","","","","","null","","1008.6999999284744","","2","1","null","null","arrowup","[0.325,0.675,0.85,0.15]","","",""
"sailing-trial","291","1544169","0.0-11.0-250.0","","","","false","","","","","","","","","","676","","202.70000004768372","","0","0","arrowleft","0","arrowleft","[0.325,0.675,0.85,0.15]","","",""
"sailing-trial","292","1546417","0.0-11.0-251.0","","","","false","","","","","","","","","","null","","805.3999999761581","","3","0","null","null","arrowup","[0.325,0.675,0.85,0.15]","","",""
"sailing-trial","293","1550047","0.0-11.0-252.0","","","","false","","","","","","","","","","993.3999999761581","","10.800000071525574","","1","0","arrowleft","0","arrowright","[0.325,0.675,0.85,0.15]","","",""
"sailing-trial","294","1552168","0.0-11.0-253.0","","","","false","","","","","","","","","","null","","579.8999999761581","","0","0","null","null","arrowup","[0.325,0.675,0.85,0.15]","","",""
"sailing-trial","295","1556076","0.0-11.0-254.0","","","","false","","","","","","","","","","872.6000000238419","","267.39999997615814","","1","1","arrowleft","0","arrowright","[0.325,0.675,0.85,0.15]","","",""
"sailing-trial","296","1558442","0.0-11.0-255.0","","","","false","","","","","","","","","","null","","774.2000000476837","","3","0","null","null","arrowup","[0.325,0.675,0.85,0.15]","","",""
"sailing-trial","297","1562847","0.0-11.0-256.0","","","","false","","","","","","","","","","805","","903.7000000476837","","1","1","arrowleft","0","arrowright","[0.325,0.675,0.85,0.15]","","",""
"sailing-trial","298","1565513","0.0-11.0-257.0","","","","false","","","","","","","","","","null","","714.3999999761581","","1","1","null","null","arrowup","[0.325,0.675,0.85,0.15]","","",""
"sailing-trial","299","1569780","0.0-11.0-258.0","","","","false","","","","","","","","","","1173.1000000238419","","37","","1","1","arrowleft","0","arrowright","[0.15,0.85,0.675,0.325]","","",""
"sailing-trial","300","1572682","0.0-11.0-259.0","","","","false","","","","","","","","","","null","","1025.2999999523163","","2","1","null","null","arrowup","[0.15,0.85,0.675,0.325]","","",""
"sailing-trial","301","1577333","0.0-11.0-260.0","","","","false","","","","","","","","","","992.7999999523163","","448.2000000476837","","1","1","arrowleft","0","arrowright","[0.15,0.85,0.675,0.325]","","",""
"sailing-trial","302","1579934","0.0-11.0-261.0","","","","false","","","","","","","","","","null","","656.6999999284744","","2","1","null","null","arrowup","[0.15,0.85,0.675,0.325]","","",""
"sailing-trial","303","1584536","0.0-11.0-262.0","","","","false","","","","","","","","","","733.1000000238419","","1012.8999999761581","","1","1","arrowleft","0","arrowright","[0.15,0.85,0.675,0.325]","","",""
"sailing-trial","304","1587271","0.0-11.0-263.0","","","","false","","","","","","","","","","null","","691.5","","1","1","null","null","arrowup","[0.15,0.85,0.675,0.325]","","",""
"sailing-trial","305","1591823","0.0-11.0-264.0","","","","false","","","","","","","","","","670","","1078.5","","1","1","arrowleft","0","arrowright","[0.15,0.85,0.675,0.325]","","",""
"sailing-trial","306","1594807","0.0-11.0-265.0","","","","false","","","","","","","","","","null","","929.1999999284744","","1","1","null","null","arrowup","[0.15,0.85,0.675,0.325]","","",""
"sailing-trial","307","1599327","0.0-11.0-266.0","","","","false","","","","","","","","","","1265.2000000476837","","364.7999999523163","","1","1","arrowleft","0","arrowright","[0.15,0.85,0.675,0.325]","","",""
"sailing-trial","308","1602211","0.0-11.0-267.0","","","","false","","","","","","","","","","null","","915.3999999761581","","2","1","null","null","arrowup","[0.15,0.85,0.675,0.325]","","",""
"sailing-trial","309","1606178","0.0-11.0-268.0","","","","false","","","","","","","","","","918.8999999761581","","148.79999995231628","","1","1","arrowleft","0","arrowright","[0.15,0.85,0.675,0.325]","","",""
"sailing-trial","310","1608146","0.0-11.0-269.0","","","","false","","","","","","","","","","null","","111.79999995231628","","2","1","null","null","arrowup","[0.15,0.85,0.675,0.325]","","",""
"sailing-trial","311","1612364","0.0-11.0-270.0","","","","false","","","","","","","","","","783.2000000476837","","160.89999997615814","","1","1","arrowleft","0","arrowright","[0.15,0.85,0.675,0.325]","","",""
"sailing-trial","312","1615031","0.0-11.0-271.0","","","","false","","","","","","","","","","null","","738.6999999284744","","3","1","null","null","arrowup","[0.15,0.85,0.675,0.325]","","",""
"sailing-trial","313","1619684","0.0-11.0-272.0","","","","false","","","","","","","","","","737.3999999761581","","700.7000000476837","","1","1","arrowleft","0","arrowright","[0.15,0.85,0.675,0.325]","","",""
"sailing-trial","314","1622417","0.0-11.0-273.0","","","","false","","","","","","","","","","null","","748.3999999761581","","2","1","null","null","arrowup","[0.15,0.85,0.675,0.325]","","",""
"sailing-trial","315","1626535","0.0-11.0-274.0","","","","false","","","","","","","","","","932.8000000715256","","268.2999999523163","","1","1","arrowleft","0","arrowright","[0.15,0.85,0.675,0.325]","","",""
"sailing-trial","316","1628943","0.0-11.0-275.0","","","","false","","","","","","","","","","null","","764.6000000238419","","3","0","null","null","arrowup","[0.15,0.85,0.675,0.325]","","",""
"sailing-trial","317","1632117","0.0-11.0-276.0","","","","false","","","","","","","","","","745.5","","142.10000002384186","","1","0","arrowleft","0","arrowright","[0.15,0.85,0.675,0.325]","","",""
"sailing-trial","318","1635306","0.0-11.0-277.0","","","","false","","","","","","","","","","null","","1095.5","","2","1","null","null","arrowup","[0.15,0.85,0.675,0.325]","","",""
"sailing-trial","319","1639689","0.0-11.0-278.0","","","","false","","","","","","","","","","797","","656.6000000238419","","2","1","arrowright","1","arrowleft","[0.15,0.85,0.675,0.325]","","",""
"sailing-trial","320","1645676","0.0-11.0-279.0","","","","false","","","","","","","","","","null","","2982.1999999284744","","2","0","null","null","arrowup","[0.15,0.85,0.675,0.325]","","",""
"sailing-trial","321","1649436","0.0-11.0-280.0","","","","false","","","","","","","","","","808.8999999761581","","270","","3","0","arrowright","1","arrowright","[0.325,0.675,0.85,0.15]","","",""
"sailing-trial","322","1651960","0.0-11.0-281.0","","","","false","","","","","","","","","","null","","1061.8000000715256","","3","0","null","null","arrowup","[0.325,0.675,0.85,0.15]","","",""
"sailing-trial","323","1657996","0.0-11.0-282.0","","","","false","","","","","","","","","","1621.4000000953674","","448","","1","1","arrowleft","0","arrowright","[0.325,0.675,0.85,0.15]","","",""
"sailing-trial","324","1661272","0.0-11.0-283.0","","","","false","","","","","","","","","","null","","1140.4000000953674","","1","0","null","null","arrowup","[0.325,0.675,0.85,0.15]","","",""
"sailing-trial","325","1665113","0.0-11.0-284.0","","","","false","","","","","","","","","","734.8999999761581","","12.699999928474426","","3","0","arrowright","1","arrowright","[0.325,0.675,0.85,0.15]","","",""
"sailing-trial","326","1668201","0.0-11.0-285.0","","","","false","","","","","","","","","","null","","1297.8000000715256","","2","1","null","null","arrowup","[0.325,0.675,0.85,0.15]","","",""
"sailing-trial","327","1674344","0.0-11.0-286.0","","","","false","","","","","","","","","","3123.8000000715256","","744.3999999761581","","3","0","arrowright","1","arrowright","[0.325,0.675,0.85,0.15]","","",""
"sailing-trial","328","1676969","0.0-11.0-287.0","","","","false","","","","","","","","","","null","","891.8999999761581","","3","0","null","null","arrowup","[0.325,0.675,0.85,0.15]","","",""
"sailing-trial","329","1680557","0.0-11.0-288.0","","","","false","","","","","","","","","","643.5","","376.1999999284744","","3","0","arrowright","1","arrowright","[0.325,0.675,0.85,0.15]","","",""
"sailing-trial","330","1683214","0.0-11.0-289.0","","","","false","","","","","","","","","","null","","1097.8000000715256","","1","0","null","null","arrowup","[0.325,0.675,0.85,0.15]","","",""
"sailing-trial","331","1687146","0.0-11.0-290.0","","","","false","","","","","","","","","","849.5999999046326","","76.79999995231628","","1","0","arrowleft","0","arrowright","[0.325,0.675,0.85,0.15]","","",""
"sailing-trial","332","1691242","0.0-11.0-291.0","","","","false","","","","","","","","","","null","","933.8999999761581","","2","1","null","null","arrowup","[0.325,0.675,0.85,0.15]","","",""
"sailing-trial","333","1697306","0.0-11.0-292.0","","","","false","","","","","","","","","","1725.7000000476837","","1699.8000000715256","","0","0","arrowleft","0","arrowleft","[0.325,0.675,0.85,0.15]","","",""
"sailing-trial","334","1701245","0.0-11.0-293.0","","","","false","","","","","","","","","","null","","1931.8999999761581","","2","1","null","null","arrowup","[0.325,0.675,0.85,0.15]","","",""
"sailing-trial","335","1708073","0.0-11.0-294.0","","","","false","","","","","","","","","","2595.5","","1669.2999999523163","","0","0","arrowleft","0","arrowleft","[0.325,0.675,0.85,0.15]","","",""
"sailing-trial","336","1711049","0.0-11.0-295.0","","","","false","","","","","","","","","","null","","940.5","","2","1","null","null","arrowup","[0.325,0.675,0.85,0.15]","","",""
"sailing-trial","337","1716057","0.0-11.0-296.0","","","","false","","","","","","","","","","1110.2999999523163","","1186.7999999523163","","0","0","arrowleft","0","arrowleft","[0.15,0.85,0.675,0.325]","","",""
"sailing-trial","338","1719227","0.0-11.0-297.0","","","","false","","","","","","","","","","null","","1595.2000000476837","","3","0","null","null","arrowup","[0.15,0.85,0.675,0.325]","","",""
"sailing-trial","339","1725289","0.0-11.0-298.0","","","","false","","","","","","","","","","1300","","665.1999999284744","","3","1","arrowright","1","arrowright","[0.15,0.85,0.675,0.325]","","",""
"sailing-trial","340","1728154","0.0-11.0-299.0","","","","false","","","","","","","","","","null","","980.0999999046326","","0","0","null","null","arrowup","[0.15,0.85,0.675,0.325]","","",""
"sailing-trial","341","1734599","0.0-11.0-300.0","","","","false","","","","","","","","","","3548.7000000476837","","323","","3","0","arrowright","1","arrowright","[0.15,0.85,0.675,0.325]","","",""
"sailing-trial","342","1737659","0.0-11.0-301.0","","","","false","","","","","","","","","","null","","880.6000000238419","","0","1","null","null","arrowup","[0.15,0.85,0.675,0.325]","","",""
"sailing-trial","343","1746845","0.0-11.0-302.0","","","","false","","","","","","","","","","3124.600000023842","","2984","","3","1","arrowright","1","arrowright","[0.15,0.85,0.675,0.325]","","",""
"sailing-trial","344","1749878","0.0-11.0-303.0","","","","false","","","","","","","","","","null","","958.3000000715256","","0","0","null","null","arrowup","[0.15,0.85,0.675,0.325]","","",""
"sailing-trial","345","1757683","0.0-11.0-304.0","","","","false","","","","","","","","","","1469.8999999761581","","2331.600000023842","","3","0","arrowright","1","arrowright","[0.15,0.85,0.675,0.325]","","",""
"sailing-trial","346","1761353","0.0-11.0-305.0","","","","false","","","","","","","","","","null","","1406.4000000953674","","1","1","null","null","arrowup","[0.15,0.85,0.675,0.325]","","",""
"sailing-trial","347","1767220","0.0-11.0-306.0","","","","false","","","","","","","","","","1819.1999999284744","","733.3999999761581","","0","1","arrowleft","0","arrowleft","[0.15,0.85,0.675,0.325]","","",""
"sailing-trial","348","1771572","0.0-11.0-307.0","","","","false","","","","","","","","","","null","","2566.1999999284744","","3","1","null","null","arrowup","[0.15,0.85,0.675,0.325]","","",""
"sailing-trial","349","1776274","0.0-11.0-308.0","","","","false","","","","","","","","","","1184.1000000238419","","550.6000000238419","","0","0","arrowleft","0","arrowleft","[0.15,0.85,0.675,0.325]","","",""
"sailing-trial","350","1778916","0.0-11.0-309.0","","","","false","","","","","","","","","","null","","1007.1000000238419","","3","0","null","null","arrowup","[0.15,0.85,0.675,0.325]","","",""
"sailing-trial","351","1783884","0.0-11.0-310.0","","","","false","","","","","","","","","","1308.2000000476837","","950.3000000715256","","0","0","arrowleft","0","arrowleft","[0.15,0.85,0.675,0.325]","","",""
"sailing-trial","352","1786844","0.0-11.0-311.0","","","","false","","","","","","","","","","null","","892.3000000715256","","2","1","null","null","arrowup","[0.15,0.85,0.675,0.325]","","",""
"sailing-trial","353","1791429","0.0-11.0-312.0","","","","false","","","","","","","","","","1180.1000000238419","","241.89999997615814","","3","1","arrowright","1","arrowright","[0.675,0.325,0.15,0.85]","","",""
"sailing-trial","354","1796331","0.0-11.0-313.0","","","","false","","","","","","","","","","null","","1272.6000000238419","","3","1","null","null","arrowup","[0.675,0.325,0.15,0.85]","","",""
"sailing-trial","355","1802212","0.0-11.0-314.0","","","","false","","","","","","","","","","1288.8999999761581","","2045.5","","3","0","arrowright","1","arrowright","[0.675,0.325,0.15,0.85]","","",""
"sailing-trial","356","1806318","0.0-11.0-315.0","","","","false","","","","","","","","","","null","","1838.6000000238419","","3","1","null","null","arrowup","[0.675,0.325,0.15,0.85]","","",""
"sailing-trial","357","1811266","0.0-11.0-316.0","","","","false","","","","","","","","","","988.2000000476837","","213.20000004768372","","3","0","arrowright","1","arrowright","[0.675,0.325,0.15,0.85]","","",""
"sailing-trial","358","1814072","0.0-11.0-317.0","","","","false","","","","","","","","","","null","","794","","3","1","null","null","arrowup","[0.675,0.325,0.15,0.85]","","",""
"sailing-trial","359","1819189","0.0-11.0-318.0","","","","false","","","","","","","","","","1723.3000000715256","","283.6999999284744","","3","1","arrowright","1","arrowright","[0.675,0.325,0.15,0.85]","","",""
"sailing-trial","360","1821815","0.0-11.0-319.0","","","","false","","","","","","","","","","null","","989.5","","2","0","null","null","arrowup","[0.675,0.325,0.15,0.85]","","",""
"sailing-trial","361","1827428","0.0-11.0-320.0","","","","false","","","","","","","","","","1875.7000000476837","","256.3000000715256","","0","1","arrowleft","0","arrowleft","[0.675,0.325,0.15,0.85]","","",""
"sailing-trial","362","1830002","0.0-11.0-321.0","","","","false","","","","","","","","","","null","","863.6000000238419","","0","0","null","null","arrowup","[0.675,0.325,0.15,0.85]","","",""
"sailing-trial","363","1834562","0.0-11.0-322.0","","","","false","","","","","","","","","","1296.1999999284744","","319.39999997615814","","0","1","arrowleft","0","arrowleft","[0.675,0.325,0.15,0.85]","","",""
"sailing-trial","364","1837101","0.0-11.0-323.0","","","","false","","","","","","","","","","null","","1043.1000000238419","","1","0","null","null","arrowup","[0.675,0.325,0.15,0.85]","","",""
"sailing-trial","365","1842766","0.0-11.0-324.0","","","","false","","","","","","","","","","930.6999999284744","","716.1000000238419","","1","0","arrowleft","0","arrowright","[0.675,0.325,0.15,0.85]","","",""
"sailing-trial","366","1845781","0.0-11.0-325.0","","","","false","","","","","","","","","","null","","1413.2999999523163","","0","0","null","null","arrowup","[0.675,0.325,0.15,0.85]","","",""
"sailing-trial","367","1851473","0.0-11.0-326.0","","","","false","","","","","","","","","","2054.100000023842","","749.6000000238419","","0","0","arrowleft","0","arrowleft","[0.675,0.325,0.15,0.85]","","",""
"sailing-trial","368","1855953","0.0-11.0-327.0","","","","false","","","","","","","","","","null","","2353.100000023842","","1","1","null","null","arrowup","[0.675,0.325,0.15,0.85]","","",""
"sailing-trial","369","1863589","0.0-11.0-328.0","","","","false","","","","","","","","","","4072.399999976158","","410.10000002384186","","0","1","arrowleft","0","arrowleft","[0.675,0.325,0.15,0.85]","","",""
"sailing-trial","370","1867124","0.0-11.0-329.0","","","","false","","","","","","","","","","null","","1278.1000000238419","","0","1","null","null","arrowup","[0.675,0.325,0.15,0.85]","","",""
"sailing-trial","371","1874243","0.0-11.0-330.0","","","","false","","","","","","","","","","1670.1000000238419","","2047.6999999284744","","0","1","arrowleft","0","arrowleft","[0.85,0.15,0.325,0.675]","","",""
"sailing-trial","372","1876794","0.0-11.0-331.0","","","","false","","","","","","","","","","null","","1106.3999999761581","","3","0","null","null","arrowup","[0.85,0.15,0.325,0.675]","","",""
"sailing-trial","373","1882782","0.0-11.0-332.0","","","","false","","","","","","","","","","1583.7000000476837","","1599.6000000238419","","3","0","arrowright","1","arrowright","[0.85,0.15,0.325,0.675]","","",""
"sailing-trial","374","1885664","0.0-11.0-333.0","","","","false","","","","","","","","","","null","","1261.7000000476837","","1","0","null","null","arrowup","[0.85,0.15,0.325,0.675]","","",""
"sailing-trial","375","1890266","0.0-11.0-334.0","","","","false","","","","","","","","","","1175","","585.7000000476837","","3","1","arrowright","1","arrowright","[0.85,0.15,0.325,0.675]","","",""
"sailing-trial","376","1893601","0.0-11.0-335.0","","","","false","","","","","","","","","","null","","1284.2999999523163","","3","1","null","null","arrowup","[0.85,0.15,0.325,0.675]","","",""
"sailing-trial","377","1900471","0.0-11.0-336.0","","","","false","","","","","","","","","","904.8999999761581","","281.39999997615814","","3","1","arrowright","1","arrowright","[0.85,0.15,0.325,0.675]","","",""
"sailing-trial","378","1903614","0.0-11.0-337.0","","","","false","","","","","","","","","","null","","1494.6000000238419","","2","0","null","null","arrowup","[0.85,0.15,0.325,0.675]","","",""
"sailing-trial","379","1912491","0.0-11.0-338.0","","","","false","","","","","","","","","","2892.600000023842","","2953.600000023842","","0","1","arrowleft","0","arrowleft","[0.85,0.15,0.325,0.675]","","",""
"sailing-trial","380","1917742","0.0-11.0-339.0","","","","false","","","","","","","","","","null","","2257.5","","1","0","null","null","arrowup","[0.85,0.15,0.325,0.675]","","",""
"sailing-trial","381","1922878","0.0-11.0-340.0","","","","false","","","","","","","","","","1413.1000000238419","","625.8999999761581","","0","1","arrowleft","0","arrowleft","[0.85,0.15,0.325,0.675]","","",""
"sailing-trial","382","1927298","0.0-11.0-341.0","","","","false","","","","","","","","","","null","","2407.5999999046326","","3","1","null","null","arrowup","[0.85,0.15,0.325,0.675]","","",""
"sailing-trial","383","1931448","0.0-11.0-342.0","","","","false","","","","","","","","","","920.2999999523163","","386.60000002384186","","3","1","arrowright","1","arrowright","[0.85,0.15,0.325,0.675]","","",""
"sailing-trial","384","1934949","0.0-11.0-343.0","","","","false","","","","","","","","","","null","","1734.3999999761581","","1","0","null","null","arrowup","[0.85,0.15,0.325,0.675]","","",""
"sailing-trial","385","1942270","0.0-11.0-344.0","","","","false","","","","","","","","","","1651.0999999046326","","313.10000002384186","","0","1","arrowleft","0","arrowleft","[0.85,0.15,0.325,0.675]","","",""
"sailing-trial","386","1945336","0.0-11.0-345.0","","","","false","","","","","","","","","","null","","998","","2","1","null","null","arrowup","[0.85,0.15,0.325,0.675]","","",""
"sailing-trial","387","1950521","0.0-11.0-346.0","","","","false","","","","","","","","","","1734.8999999761581","","208.60000002384186","","0","1","arrowleft","0","arrowleft","[0.85,0.15,0.325,0.675]","","",""
"sailing-trial","388","1954707","0.0-11.0-347.0","","","","false","","","","","","","","","","null","","2080.9000000953674","","0","1","null","null","arrowup","[0.85,0.15,0.325,0.675]","","",""
"sailing-trial","389","1960425","0.0-11.0-348.0","","","","false","","","","","","","","","","1015.1000000238419","","1632.8000000715256","","0","1","arrowleft","0","arrowleft","[0.15,0.85,0.675,0.325]","","",""
"sailing-trial","390","1964577","0.0-11.0-349.0","","","","false","","","","","","","","","","null","","2259.600000023842","","1","1","null","null","arrowup","[0.15,0.85,0.675,0.325]","","",""
"sailing-trial","391","1969611","0.0-11.0-350.0","","","","false","","","","","","","","","","1512.2000000476837","","664.7000000476837","","3","1","arrowright","1","arrowright","[0.15,0.85,0.675,0.325]","","",""
"sailing-trial","392","1972480","0.0-11.0-351.0","","","","false","","","","","","","","","","null","","1082.5","","3","1","null","null","arrowup","[0.15,0.85,0.675,0.325]","","",""
"sailing-trial","393","1976614","0.0-11.0-352.0","","","","false","","","","","","","","","","855.8000000715256","","495.10000002384186","","3","1","arrowright","1","arrowright","[0.15,0.85,0.675,0.325]","","",""
"sailing-trial","394","1979266","0.0-11.0-353.0","","","","false","","","","","","","","","","null","","725.1000000238419","","1","1","null","null","arrowup","[0.15,0.85,0.675,0.325]","","",""
"sailing-trial","395","1982776","0.0-11.0-354.0","","","","false","","","","","","","","","","742.6000000238419","","237.80000007152557","","3","0","arrowright","1","arrowright","[0.15,0.85,0.675,0.325]","","",""
"sailing-trial","396","1985735","0.0-11.0-355.0","","","","false","","","","","","","","","","null","","920.6999999284744","","2","1","null","null","arrowup","[0.15,0.85,0.675,0.325]","","",""
"sailing-trial","397","1989352","0.0-11.0-356.0","","","","false","","","","","","","","","","599.1000000238419","","461.10000002384186","","2","0","arrowright","1","arrowleft","[0.15,0.85,0.675,0.325]","","",""
"sailing-trial","398","1992404","0.0-11.0-357.0","","","","false","","","","","","","","","","null","","1087.7000000476837","","2","1","null","null","arrowup","[0.15,0.85,0.675,0.325]","","",""
"sailing-trial","399","1996389","0.0-11.0-358.0","","","","false","","","","","","","","","","1013.2000000476837","","208.69999992847443","","1","1","arrowleft","0","arrowright","[0.15,0.85,0.675,0.325]","","",""
"sailing-trial","400","1999293","0.0-11.0-359.0","","","","false","","","","","","","","","","null","","1097.3000000715256","","1","1","null","null","arrowup","[0.15,0.85,0.675,0.325]","","",""
"sailing-trial","401","2004909","0.0-11.0-360.0","","","","false","","","","","","","","","","1082.2999999523163","","1183","","1","1","arrowleft","0","arrowright","[0.15,0.85,0.675,0.325]","","",""
"sailing-trial","402","2006975","0.0-11.0-361.0","","","","false","","","","","","","","","","null","","526.6000000238419","","3","0","null","null","arrowup","[0.15,0.85,0.675,0.325]","","",""
"sailing-trial","403","2011529","0.0-11.0-362.0","","","","false","","","","","","","","","","1092.1000000238419","","514.8000000715256","","0","1","arrowleft","0","arrowleft","[0.15,0.85,0.675,0.325]","","",""
"sailing-trial","404","2014196","0.0-11.0-363.0","","","","false","","","","","","","","","","null","","771.5","","1","1","null","null","arrowup","[0.15,0.85,0.675,0.325]","","",""
"sailing-trial","405","2017619","0.0-11.0-364.0","","","","false","","","","","","","","","","788.7000000476837","","356.60000002384186","","0","0","arrowleft","0","arrowleft","[0.325,0.675,0.85,0.15]","","",""
"sailing-trial","406","2020971","0.0-11.0-365.0","","","","false","","","","","","","","","","null","","1422.8000000715256","","1","0","null","null","arrowup","[0.325,0.675,0.85,0.15]","","",""
"sailing-trial","407","2024496","0.0-11.0-366.0","","","","false","","","","","","","","","","734.8999999761581","","17","","3","0","arrowright","1","arrowright","[0.325,0.675,0.85,0.15]","","",""
"sailing-trial","408","2026750","0.0-11.0-367.0","","","","false","","","","","","","","","","null","","875.7999999523163","","3","0","null","null","arrowup","[0.325,0.675,0.85,0.15]","","",""
"sailing-trial","409","2031704","0.0-11.0-368.0","","","","false","","","","","","","","","","931.1000000238419","","1011.1999999284744","","2","1","arrowright","1","arrowleft","[0.325,0.675,0.85,0.15]","","",""
"sailing-trial","410","2034303","0.0-11.0-369.0","","","","false","","","","","","","","","","null","","656.6999999284744","","1","1","null","null","arrowup","[0.325,0.675,0.85,0.15]","","",""
"sailing-trial","411","2038838","0.0-11.0-370.0","","","","false","","","","","","","","","","1211.3000000715256","","443.5","","2","1","arrowright","1","arrowleft","[0.325,0.675,0.85,0.15]","","",""
"sailing-trial","412","2040860","0.0-11.0-371.0","","","","false","","","","","","","","","","null","","708.1999999284744","","1","0","null","null","arrowup","[0.325,0.675,0.85,0.15]","","",""
"sailing-trial","413","2044359","0.0-11.0-372.0","","","","false","","","","","","","","","","819.2999999523163","","84.90000009536743","","1","0","arrowleft","0","arrowright","[0.325,0.675,0.85,0.15]","","",""
"sailing-trial","414","2046264","0.0-11.0-373.0","","","","false","","","","","","","","","","null","","535.8000000715256","","0","0","null","null","arrowup","[0.325,0.675,0.85,0.15]","","",""
"sailing-trial","415","2050180","0.0-11.0-374.0","","","","false","","","","","","","","","","971.7000000476837","","342.39999997615814","","0","0","arrowleft","0","arrowleft","[0.325,0.675,0.85,0.15]","","",""
"sailing-trial","416","2053343","0.0-11.0-375.0","","","","false","","","","","","","","","","null","","1055.7999999523163","","1","1","null","null","arrowup","[0.325,0.675,0.85,0.15]","","",""
"sailing-trial","417","2057595","0.0-11.0-376.0","","","","false","","","","","","","","","","1160.8999999761581","","44.200000047683716","","1","1","arrowleft","0","arrowright","[0.325,0.675,0.85,0.15]","","",""
"sailing-trial","418","2060629","0.0-11.0-377.0","","","","false","","","","","","","","","","null","","1216.3999999761581","","1","1","null","null","arrowup","[0.325,0.675,0.85,0.15]","","",""
"sailing-trial","419","2066798","0.0-11.0-378.0","","","","false","","","","","","","","","","1030.8999999761581","","1293.5","","1","1","arrowleft","0","arrowright","[0.325,0.675,0.85,0.15]","","",""
"sailing-trial","420","2070099","0.0-11.0-379.0","","","","false","","","","","","","","","","null","","1489.5999999046326","","1","1","null","null","arrowup","[0.325,0.675,0.85,0.15]","","",""
"sailing-trial","421","2076686","0.0-11.0-380.0","","","","false","","","","","","","","","","1277.7000000476837","","1320.8999999761581","","1","0","arrowleft","0","arrowright","[0.675,0.325,0.15,0.85]","","",""
"sailing-trial","422","2080521","0.0-11.0-381.0","","","","false","","","","","","","","","","null","","1697.2000000476837","","3","1","null","null","arrowup","[0.675,0.325,0.15,0.85]","","",""
"sailing-trial","423","2085771","0.0-11.0-382.0","","","","false","","","","","","","","","","1166","","824.9000000953674","","1","1","arrowleft","0","arrowright","[0.675,0.325,0.15,0.85]","","",""
"sailing-trial","424","2091875","0.0-11.0-383.0","","","","false","","","","","","","","","","null","","3099.100000023842","","1","0","null","null","arrowup","[0.675,0.325,0.15,0.85]","","",""
"sailing-trial","425","2095583","0.0-11.0-384.0","","","","false","","","","","","","","","","1111.3999999761581","","44.10000002384186","","1","0","arrowleft","0","arrowright","[0.675,0.325,0.15,0.85]","","",""
"sailing-trial","426","2099044","0.0-11.0-385.0","","","","false","","","","","","","","","","null","","974.6000000238419","","2","0","null","null","arrowup","[0.675,0.325,0.15,0.85]","","",""
"sailing-trial","427","2103245","0.0-11.0-386.0","","","","false","","","","","","","","","","687","","240.60000002384186","","3","1","arrowright","1","arrowright","[0.675,0.325,0.15,0.85]","","",""
"sailing-trial","428","2106270","0.0-11.0-387.0","","","","false","","","","","","","","","","null","","1366","","3","0","null","null","arrowup","[0.675,0.325,0.15,0.85]","","",""
"sailing-trial","429","2110580","0.0-11.0-388.0","","","","false","","","","","","","","","","895","","156.19999992847443","","3","1","arrowright","1","arrowright","[0.675,0.325,0.15,0.85]","","",""
"sailing-trial","430","2113114","0.0-11.0-389.0","","","","false","","","","","","","","","","null","","873.1999999284744","","0","0","null","null","arrowup","[0.675,0.325,0.15,0.85]","","",""
"sailing-trial","431","2118550","0.0-11.0-390.0","","","","false","","","","","","","","","","934.8000000715256","","1316.6999999284744","","3","1","arrowright","1","arrowright","[0.675,0.325,0.15,0.85]","","",""
"sailing-trial","432","2121257","0.0-11.0-391.0","","","","false","","","","","","","","","","null","","1186.2000000476837","","3","0","null","null","arrowup","[0.675,0.325,0.15,0.85]","","",""
"sailing-trial","433","2126604","0.0-11.0-392.0","","","","false","","","","","","","","","","1556.7000000476837","","985.7999999523163","","3","1","arrowright","1","arrowright","[0.675,0.325,0.15,0.85]","","",""
"sailing-trial","434","2130742","0.0-11.0-393.0","","","","false","","","","","","","","","","null","","2674.2000000476837","","3","0","null","null","arrowup","[0.675,0.325,0.15,0.85]","","",""
"sailing-trial","435","2134524","0.0-11.0-394.0","","","","false","","","","","","","","","","892.8999999761581","","113","","1","1","arrowleft","0","arrowright","[0.675,0.325,0.15,0.85]","","",""
"sailing-trial","436","2137175","0.0-11.0-395.0","","","","false","","","","","","","","","","null","","688.1000000238419","","3","1","null","null","arrowup","[0.675,0.325,0.15,0.85]","","",""
"sailing-trial","437","2142210","0.0-11.0-396.0","","","","false","","","","","","","","","","993.5","","812.1000000238419","","1","1","arrowleft","0","arrowright","[0.675,0.325,0.15,0.85]","","",""
"sailing-trial","438","2144937","0.0-11.0-397.0","","","","false","","","","","","","","","","null","","540.3999999761581","","0","0","null","null","arrowup","[0.675,0.325,0.15,0.85]","","",""
"sailing-trial","439","2149597","0.0-11.0-398.0","","","","false","","","","","","","","","","566","","1267.6999999284744","","3","1","arrowright","1","arrowright","[0.675,0.325,0.15,0.85]","","",""
"sailing-trial","440","2151999","0.0-11.0-399.0","","","","false","","","","","","","","","","null","","798.2000000476837","","2","0","null","null","arrowup","[0.675,0.325,0.15,0.85]","","",""
"instructions","441","2160604","0.0-12.0","","","","","","","","","","8604.800000071526","","","","","","","","","","","","","","","","[{""page_index"":0,""viewing_time"":8604.300000071526}]"
"survey-debrief","442","2214580","0.0-13.0","","","","","","","","","","53975.299999952316","","","","","","","","","","","","","","{""difficulty"":""2"",""fun"":""3"",""clarity"":""5"",""strategy"":""it was too fast"",""feedback"":""""}","",""
