"trial_type","trial_index","time_elapsed","internal_node_id","value","metadata","success","timeout","failed_images","failed_audio","failed_video","browser_interaction","low_quality","rt","stimulus","response","button_pressed","island_rt","island_response","boat_rt","boat_response","boat","reward","island_key","island","boat_key","reward_probabilities","responses","num_errors","view_history"
"pavlovia","0","3","0.0-0.0","","","","","","","","","","","","","","","","","","","","","","","","","",""
"call-function","1","4","0.0-1.0","","{""task_version"":""sailing_part1_v1"",""task_condition"":""good"",""boats"":[""A"",""B"",""C"",""D""],""boats_demo"":[""E"",""G"",""F"",""H""],""islands"":[""B"",""A""],""subject_id"":""14770"",""age"":""21"",""gender"":""Female""}","","","","","","","","","","","","","","","","","","","","","","","",""
"preload","2","4822","0.0-2.0","","","true","false","[]","[]","[]","[{""event"":""fullscreenenter"",""trial"":3,""time"":7565}]","false","","","","","","","","","","","","","","","","",""
"fullscreen","3","8534","0.0-3.0","","","true","","","","","","","","","","","","","","","","","","","","","","",""
"audio-keyboard-response","4","10131","0.0-4.0-0.0","","","","","","","","","","1393.1972789115646","audio/beep_loop.wav"," ","","","","","","","","","","","","","",""
"audio-test","5","13752","0.0-4.0-1.0","","","","","","","","","","null","audio/turtle.mp3","","3","","","","","","","","","","","","",""
"audio-test","6","15765","0.0-4.0-2.0","","","","","","","","","","null","audio/shark.mp3","","2","","","","","","","","","","","","",""
"sailing-instructions","7","44533","0.0-5.0-0.0-0.0","","","","","","","","","","","","","","null","null","null","null","null","null","","","","","","",""
"sailing-trial","8","47832","0.0-5.0-0.0-1.0-0.0","","","","false","","","","","","","","","","2109.3999999910593","","null","","null","null","arrowleft","0","null","null","","",""
"sailing-trial","9","49815","0.0-5.0-0.0-1.0-1.0","","","","false","","","","","","","","","","835.2000000029802","","null","","null","null","arrowright","1","null","null","","",""
"sailing-trial","10","51664","0.0-5.0-0.0-1.0-2.0","","","","false","","","","","","","","","","698","","null","","null","null","arrowleft","0","null","null","","",""
"sailing-instructions","11","93232","0.0-5.0-0.0-2.0","","","","","","","","","","","","","","null","null","null","null","0","null","","","","","","",""
"sailing-trial","12","99982","0.0-5.0-0.0-3.0-0.0","","","","false","","","","","","","","","","null","","3300.4000000059605","","2","1","null","null","arrowleft","[1,1,1,1]","","",""
"sailing-trial","13","102815","0.0-5.0-0.0-3.0-1.0","","","","false","","","","","","","","","","null","","396.40000000596046","","3","1","null","null","arrowright","[1,1,1,1]","","",""
"sailing-trial","14","105111","0.0-5.0-0.0-3.0-2.0","","","","false","","","","","","","","","","null","","299.40000000596046","","2","0","null","null","arrowleft","[0,0,0,0]","","",""
"sailing-instructions","15","112356","0.0-5.0-0.0-4.0","","","","","","","","","","","","","","null","null","null","null","null","null","","","","","","",""
"sailing-comprehension","16","128244","0.0-5.0-0.0-5.0","","","","","","","","","","14104.10000000894","","","","","","","","","","","","","","[""true"",""true"",""false"",""true""]","0",""
"sailing-instructions","17","186491","0.0-6.0-0.0-0.0","","","","","","","","","","","","","","null","null","null","null","null","null","","","","","","",""
"sailing-comprehension","18","193544","0.0-6.0-0.0-1.0","","","","","","","","","","6312.800000011921","","","","","","","","","","","","","","[""true"",""false"",""true""]","0",""
"sailing-instructions","19","206534","0.0-7.0-0.0-0.0","","","","","","","","","","","","","","null","null","null","null","null","null","","","","","","",""
"sailing-trial","20","211537","0.0-7.0-0.0-1.0-0.0","","","","false","","","","","","","","","","null","","3207.8999999910593","","0","0","null","null","arrowup","[0.2,0.8,0.2,0.8]","","",""
"sailing-trial","21","213491","0.0-7.0-0.0-1.0-1.0","","","","false","","","","","","","","","","null","","807.1000000089407","","1","0","null","null","arrowup","[0.2,0.8,0.2,0.8]","","",""
"sailing-trial","22","214983","0.0-7.0-0.0-1.0-2.0","","","","false","","","","","","","","","","null","","411.40000000596046","","2","0","null","null","arrowup","[0.2,0.8,0.2,0.8]","","",""
"sailing-trial","23","217163","0.0-7.0-0.0-1.0-3.0","","","","false","","","","","","","","","","null","","398.3999999910593","","3","1","null","null","arrowup","[0.2,0.8,0.2,0.8]","","",""
"sailing-comprehension","24","222241","0.0-7.0-0.0-2.0","","","","","","","","","","3650.5","","","","","","","","","","","","","","[""true""]","1",""
"sailing-instructions","25","235121","0.0-7.0-0.1-0.1","","","","","","","","","","","","","","null","null","null","null","null","null","","","","","","",""
"sailing-trial","26","237837","0.0-7.0-0.1-1.1-0.1","","","","false","","","","","","","","","","null","","1328.6000000089407","","0","0","null","null","arrowup","[0.2,0.8,0.2,0.8]","","",""
"sailing-trial","27","239879","0.0-7.0-0.1-1.1-1.1","","","","false","","","","","","","","","","null","","108.59999999403954","","1","1","null","null","arrowup","[0.2,0.8,0.2,0.8]","","",""
"sailing-trial","28","241073","0.0-7.0-0.1-1.1-2.1","","","","false","","","","","","","","","","null","","92.69999998807907","","2","0","null","null","arrowup","[0.2,0.8,0.2,0.8]","","",""
"sailing-trial","29","242964","0.0-7.0-0.1-1.1-3.1","","","","false","","","","","","","","","","null","","19.700000002980232","","3","1","null","null","arrowup","[0.2,0.8,0.2,0.8]","","",""
"sailing-comprehension","30","247436","0.0-7.0-0.1-2.1","","","","","","","","","","2814.5","","","","","","","","","","","","","","[""false""]","0",""
"sailing-instructions","31","276574","0.0-8.0-0.0-0.0","","","","","","","","","","","","","","null","null","null","null","null","null","","","","","","",""
"sailing-comprehension","32","280843","0.0-8.0-0.0-1.0","","","","","","","","","","2878.7999999970198","","","","","","","","","","","","","","[""true""]","0",""
"sailing-instructions","33","304383","0.0-9.0-0.0-0.0","","","","","","","","","","","","","","null","null","null","null","null","null","","","","","","",""
"sailing-trial","34","311393","0.0-9.0-0.0-1.0-0.0","","","","false","","","","","","","","","","3362.5","","673.7000000029802","","0","0","arrowleft","0","arrowleft","[0.2,0.8,0.2,0.8]","","",""
"sailing-trial","35","315479","0.0-9.0-0.0-1.0-1.0","","","","false","","","","","","","","","","822","","188.20000000298023","","3","1","arrowright","1","arrowright","[0.2,0.8,0.2,0.8]","","",""
"sailing-trial","36","318065","0.0-9.0-0.0-1.0-2.0","","","","false","","","","","","","","","","null","","1026.5999999940395","","0","0","null","null","arrowup","[0.2,0.8,0.2,0.8]","","",""
"sailing-trial","37","322495","0.0-9.0-0.0-1.0-3.0","","","","false","","","","","","","","","","715","","766.0999999940395","","1","1","arrowleft","0","arrowright","[0.2,0.8,0.2,0.8]","","",""
"sailing-trial","38","325711","0.0-9.0-0.0-1.0-4.0","","","","false","","","","","","","","","","null","","1018.5999999940395","","3","1","null","null","arrowup","[0.2,0.8,0.2,0.8]","","",""
"sailing-trial","39","329895","0.0-9.0-0.0-1.0-5.0","","","","false","","","","","","","","","","599.5","","544.6000000089407","","3","1","arrowright","1","arrowright","[0.2,0.8,0.2,0.8]","","",""
"sailing-instructions","40","354211","0.0-10.0","","","","","","","","","","","","","","null","null","null","null","null","null","","","","","","",""
"sailing-trial","41","359173","0.0-11.0-0.0","","","","false","","","","","","","","","","1706.5","","88.29999999701977","","3","1","arrowright","1","arrowright","[0.325,0.675,0.15,0.85]","","",""
"sailing-trial","42","362138","0.0-11.0-1.0","","","","false","","","","","","","","","","null","","1271.7000000029802","","0","0","null","null","arrowup","[0.325,0.675,0.15,0.85]","","",""
"sailing-trial","43","365699","0.0-11.0-2.0","","","","false","","","","","","","","","","552.3000000119209","","21","","0","1","arrowleft","0","arrowleft","[0.325,0.675,0.15,0.85]","","",""
"sailing-trial","44","367724","0.0-11.0-3.0","","","","false","","","","","","","","","","null","","639.6000000089407","","2","0","null","null","arrowup","[0.325,0.675,0.15,0.85]","","",""
"sailing-trial","45","371660","0.0-11.0-4.0","","","","false","","","","","","","","","","644.8999999910593","","266.69999998807907","","3","1","arrowright","1","arrowright","[0.325,0.675,0.15,0.85]","","",""
"sailing-trial","46","374155","0.0-11.0-5.0","","","","false","","","","","","","","","","null","","994.3999999910593","","2","0","null","null","arrowup","[0.325,0.675,0.15,0.85]","","",""
"sailing-trial","47","378504","0.0-11.0-6.0","","","","false","","","","","","","","","","844.7999999970198","","375.80000001192093","","1","1","arrowleft","0","arrowright","[0.325,0.675,0.15,0.85]","","",""
"sailing-trial","48","381042","0.0-11.0-7.0","","","","false","","","","","","","","","","null","","1140","","2","0","null","null","arrowup","[0.325,0.675,0.15,0.85]","","",""
"sailing-trial","49","384263","0.0-11.0-8.0","","","","false","","","","","","","","","","513.7000000029802","","188.59999999403954","","2","0","arrowright","1","arrowleft","[0.325,0.675,0.15,0.85]","","",""
"sailing-trial","50","386944","0.0-11.0-9.0","","","","false","","","","","","","","","","null","","860.9000000059605","","3","1","null","null","arrowup","[0.325,0.675,0.15,0.85]","","",""
"sailing-trial","51","391249","0.0-11.0-10.0","","","","false","","","","","","","","","","651.7999999970198","","535.3000000119209","","3","1","arrowright","1","arrowright","[0.325,0.675,0.15,0.85]","","",""
"sailing-trial","52","393945","0.0-11.0-11.0","","","","false","","","","","","","","","","null","","826.9000000059605","","3","1","null","null","arrowup","[0.325,0.675,0.15,0.85]","","",""
"sailing-trial","53","397902","0.0-11.0-12.0","","","","false","","","","","","","","","","475.29999999701977","","225.90000000596046","","0","1","arrowleft","0","arrowleft","[0.325,0.675,0.15,0.85]","","",""
"sailing-trial","54","399983","0.0-11.0-13.0","","","","false","","","","","","","","","","null","","727.9000000059605","","3","0","null","null","arrowup","[0.325,0.675,0.15,0.85]","","",""
"sailing-trial","55","403925","0.0-11.0-14.0","","","","false","","","","","","","","","","571.1000000089407","","282.5","","3","1","arrowright","1","arrowright","[0.325,0.675,0.15,0.85]","","",""
"sailing-trial","56","406337","0.0-11.0-15.0","","","","false","","","","","","","","","","null","","1082.4000000059605","","1","0","null","null","arrowup","[0.325,0.675,0.15,0.85]","","",""
"sailing-trial","57","410280","0.0-11.0-16.0","","","","false","","","","","","","","","","599.2000000029802","","220.29999999701977","","1","1","arrowleft","0","arrowright","[0.325,0.675,0.15,0.85]","","",""
"sailing-trial","58","411735","0.0-11.0-17.0","","","","false","","","","","","","","","","null","","189.5","","0","0","null","null","arrowup","[0.325,0.675,0.15,0.85]","","",""
"sailing-trial","59","414899","0.0-11.0-18.0","","","","false","","","","","","","","","","412.6000000089407","","139.79999999701977","","0","0","arrowleft","0","arrowleft","[0.325,0.675,0.15,0.85]","","",""
"sailing-trial","60","416079","0.0-11.0-19.0","","","","false","","","","","","","","","","null","","121.09999999403954","","2","0","null","null","arrowup","[0.325,0.675,0.15,0.85]","","",""
"sailing-trial","61","418850","0.0-11.0-20.0","","","","false","","","","","","","","","","382.79999999701977","","31.399999991059303","","2","0","arrowright","1","arrowleft","[0.15,0.85,0.325,0.675]","","",""
"sailing-trial","62","420362","0.0-11.0-21.0","","","","false","","","","","","","","","","null","","238.40000000596046","","0","0","null","null","arrowup","[0.15,0.85,0.325,0.675]","","",""
"sailing-trial","63","423781","0.0-11.0-22.0","","","","false","","","","","","","","","","113.69999998807907","","337.79999999701977","","3","1","arrowright","1","arrowright","[0.15,0.85,0.325,0.675]","","",""
"sailing-trial","64","425528","0.0-11.0-23.0","","","","false","","","","","","","","","","null","","42.900000005960464","","1","1","null","null","arrowup","[0.15,0.85,0.325,0.675]","","",""
"sailing-trial","65","428337","0.0-11.0-24.0","","","","false","","","","","","","","","","28.900000005960464","","114.80000001192093","","3","0","arrowright","1","arrowright","[0.15,0.85,0.325,0.675]","","",""
"sailing-trial","66","430429","0.0-11.0-25.0","","","","false","","","","","","","","","","null","","95.30000001192093","","2","1","null","null","arrowup","[0.15,0.85,0.325,0.675]","","",""
"sailing-trial","67","433574","0.0-11.0-26.0","","","","false","","","","","","","","","","57.1000000089407","","132.70000000298023","","1","1","arrowleft","0","arrowright","[0.15,0.85,0.325,0.675]","","",""
"sailing-trial","68","435544","0.0-11.0-27.0","","","","false","","","","","","","","","","null","","43.5","","1","1","null","null","arrowup","[0.15,0.85,0.325,0.675]","","",""
"sailing-trial","69","438472","0.0-11.0-28.0","","","","false","","","","","","","","","","91.8999999910593","","82.20000000298023","","1","1","arrowleft","0","arrowright","[0.15,0.85,0.325,0.675]","","",""
"sailing-trial","70","439865","0.0-11.0-29.0","","","","false","","","","","","","","","","null","","11.600000008940697","","2","0","null","null","arrowup","[0.15,0.85,0.325,0.675]","","",""
"sailing-trial","71","443054","0.0-11.0-30.0","","","","false","","","","","","","","","","270.79999999701977","","82.40000000596046","","1","1","arrowleft","0","arrowright","[0.15,0.85,0.325,0.675]","","",""
"sailing-trial","72","445010","0.0-11.0-31.0","","","","false","","","","","","","","","","null","","157.40000000596046","","2","1","null","null","arrowup","[0.15,0.85,0.325,0.675]","","",""
"sailing-trial","73","448381","0.0-11.0-32.0","","","","false","","","","","","","","","","106.79999999701977","","487.09999999403954","","1","1","arrowleft","0","arrowright","[0.15,0.85,0.325,0.675]","","",""
"sailing-trial","74","450427","0.0-11.0-33.0","","","","false","","","","","","","","","","null","","40.1000000089407","","3","1","null","null","arrowup","[0.15,0.85,0.325,0.675]","","",""
"sailing-trial","75","453332","0.0-11.0-34.0","","","","false","","","","","","","","","","70.90000000596046","","25.099999994039536","","3","1","arrowright","1","arrowright","[0.15,0.85,0.325,0.675]","","",""
"sailing-trial","76","455294","0.0-11.0-35.0","","","","false","","","","","","","","","","null","","42.900000005960464","","3","1","null","null","arrowup","[0.15,0.85,0.325,0.675]","","",""
"sailing-trial","77","458298","0.0-11.0-36.0","","","","false","","","","","","","","","","131.1000000089407","","244.20000000298023","","2","0","arrowright","1","arrowleft","[0.675,0.325,0.85,0.15]","","",""
"sailing-trial","78","460394","0.0-11.0-37.0","","","","false","","","","","","","","","","null","","161.5","","0","1","null","null","arrowup","[0.675,0.325,0.85,0.15]","","",""
"sailing-trial","79","462941","0.0-11.0-38.0","","","","false","","","","","","","","","","37.099999994039536","","117.5","","1","0","arrowleft","0","arrowright","[0.675,0.325,0.85,0.15]","","",""
"sailing-trial","80","465276","0.0-11.0-39.0","","","","false","","","","","","","","","","null","","455.5","","1","1","null","null","arrowup","[0.675,0.325,0.85,0.15]","","",""
"sailing-trial","81","467815","0.0-11.0-40.0","","","","false","","","","","","","","","","16.799999997019768","","26.900000005960464","","0","0","arrowleft","0","arrowleft","[0.675,0.325,0.85,0.15]","","",""
"sailing-trial","82","469486","0.0-11.0-41.0","","","","false","","","","","","","","","","null","","288","","1","0","null","null","arrowup","[0.675,0.325,0.85,0.15]","","",""
"sailing-trial","83","472130","0.0-11.0-42.0","","","","false","","","","","","","","","","51.5","","87.29999999701977","","3","0","arrowright","1","arrowright","[0.675,0.325,0.85,0.15]","","",""
"sailing-trial","84","474193","0.0-11.0-43.0","","","","false","","","","","","","","","","null","","37.900000005960464","","1","1","null","null","arrowup","[0.675,0.325,0.85,0.15]","","",""
"sailing-trial","85","477423","0.0-11.0-44.0","","","","false","","","","","","","","","","111.79999999701977","","146.69999998807907","","2","1","arrowright","1","arrowleft","[0.675,0.325,0.85,0.15]","","",""
"sailing-trial","86","479344","0.0-11.0-45.0","","","","false","","","","","","","","","","null","","105.20000000298023","","3","1","null","null","arrowup","[0.675,0.325,0.85,0.15]","","",""
"sailing-trial","87","481867","0.0-11.0-46.0","","","","false","","","","","","","","","","142.8999999910593","","79","","2","0","arrowright","1","arrowleft","[0.675,0.325,0.85,0.15]","","",""
"sailing-trial","88","484307","0.0-11.0-47.0","","","","false","","","","","","","","","","null","","10","","1","0","null","null","arrowup","[0.675,0.325,0.85,0.15]","","",""
"sailing-trial","89","486787","0.0-11.0-48.0","","","","false","","","","","","","","","","138.5","","91.70000000298023","","2","0","arrowright","1","arrowleft","[0.675,0.325,0.85,0.15]","","",""
"sailing-trial","90","487975","0.0-11.0-49.0","","","","false","","","","","","","","","","null","","86.79999999701977","","1","0","null","null","arrowup","[0.675,0.325,0.85,0.15]","","",""
"sailing-trial","91","490610","0.0-11.0-50.0","","","","false","","","","","","","","","","149.79999999701977","","59.79999999701977","","3","0","arrowright","1","arrowright","[0.675,0.325,0.85,0.15]","","",""
"sailing-trial","92","492067","0.0-11.0-51.0","","","","false","","","","","","","","","","null","","67.70000000298023","","3","0","null","null","arrowup","[0.675,0.325,0.85,0.15]","","",""
"sailing-trial","93","494514","0.0-11.0-52.0","","","","false","","","","","","","","","","19.599999994039536","","73.79999999701977","","1","0","arrowleft","0","arrowright","[0.325,0.675,0.15,0.85]","","",""
"sailing-trial","94","495944","0.0-11.0-53.0","","","","false","","","","","","","","","","null","","85.09999999403954","","2","0","null","null","arrowup","[0.325,0.675,0.15,0.85]","","",""
"sailing-trial","95","498254","0.0-11.0-54.0","","","","false","","","","","","","","","","62.400000005960464","","77.19999998807907","","0","0","arrowleft","0","arrowleft","[0.325,0.675,0.15,0.85]","","",""
"sailing-trial","96","499762","0.0-11.0-55.0","","","","false","","","","","","","","","","null","","137.6000000089407","","0","0","null","null","arrowup","[0.325,0.675,0.15,0.85]","","",""
"sailing-trial","97","502332","0.0-11.0-56.0","","","","false","","","","","","","","","","116.30000001192093","","39.70000000298023","","2","0","arrowright","1","arrowleft","[0.325,0.675,0.15,0.85]","","",""
"sailing-trial","98","504294","0.0-11.0-57.0","","","","false","","","","","","","","","","null","","149","","3","1","null","null","arrowup","[0.325,0.675,0.15,0.85]","","",""
"sailing-trial","99","507677","0.0-11.0-58.0","","","","false","","","","","","","","","","35.5","","159","","3","1","arrowright","1","arrowright","[0.325,0.675,0.15,0.85]","","",""
"sailing-trial","100","509643","0.0-11.0-59.0","","","","false","","","","","","","","","","null","","35.29999999701977","","2","1","null","null","arrowup","[0.325,0.675,0.15,0.85]","","",""
"sailing-trial","101","512498","0.0-11.0-60.0","","","","false","","","","","","","","","","45.80000001192093","","68.5","","3","1","arrowright","1","arrowright","[0.325,0.675,0.15,0.85]","","",""
"sailing-trial","102","513917","0.0-11.0-61.0","","","","false","","","","","","","","","","null","","103.09999999403954","","1","0","null","null","arrowup","[0.325,0.675,0.15,0.85]","","",""
"sailing-trial","103","516859","0.0-11.0-62.0","","","","false","","","","","","","","","","117.79999999701977","","97.1000000089407","","3","1","arrowright","1","arrowright","[0.325,0.675,0.15,0.85]","","",""
"sailing-trial","104","518296","0.0-11.0-63.0","","","","false","","","","","","","","","","null","","74.1000000089407","","0","0","null","null","arrowup","[0.325,0.675,0.15,0.85]","","",""
"sailing-trial","105","520838","0.0-11.0-64.0","","","","false","","","","","","","","","","74.70000000298023","","116.3999999910593","","3","0","arrowright","1","arrowright","[0.325,0.675,0.15,0.85]","","",""
"sailing-trial","106","522279","0.0-11.0-65.0","","","","false","","","","","","","","","","null","","118.40000000596046","","2","0","null","null","arrowup","[0.325,0.675,0.15,0.85]","","",""
"sailing-trial","107","525343","0.0-11.0-66.0","","","","false","","","","","","","","","","127.3999999910593","","88.70000000298023","","3","1","arrowright","1","arrowright","[0.325,0.675,0.15,0.85]","","",""
"sailing-trial","108","527310","0.0-11.0-67.0","","","","false","","","","","","","","","","null","","104.90000000596046","","2","1","null","null","arrowup","[0.325,0.675,0.15,0.85]","","",""
"sailing-trial","109","530105","0.0-11.0-68.0","","","","false","","","","","","","","","","161","","64.59999999403954","","3","0","arrowright","1","arrowright","[0.325,0.675,0.15,0.85]","","",""
"sailing-trial","110","532076","0.0-11.0-69.0","","","","false","","","","","","","","","","null","","133.3999999910593","","2","1","null","null","arrowup","[0.325,0.675,0.15,0.85]","","",""
"sailing-trial","111","535526","0.0-11.0-70.0","","","","false","","","","","","","","","","141.70000000298023","","60","","3","1","arrowright","1","arrowright","[0.15,0.85,0.325,0.675]","","",""
"sailing-trial","112","537861","0.0-11.0-71.0","","","","false","","","","","","","","","","null","","121.70000000298023","","3","1","null","null","arrowup","[0.15,0.85,0.325,0.675]","","",""
"sailing-trial","113","541020","0.0-11.0-72.0","","","","false","","","","","","","","","","153.70000000298023","","72.90000000596046","","3","1","arrowright","1","arrowright","[0.15,0.85,0.325,0.675]","","",""
"sailing-trial","114","542513","0.0-11.0-73.0","","","","false","","","","","","","","","","null","","104.90000000596046","","3","0","null","null","arrowup","[0.15,0.85,0.325,0.675]","","",""
"sailing-trial","115","545444","0.0-11.0-74.0","","","","false","","","","","","","","","","150.90000000596046","","11.700000002980232","","2","1","arrowright","1","arrowleft","[0.15,0.85,0.325,0.675]","","",""
"sailing-trial","116","546849","0.0-11.0-75.0","","","","false","","","","","","","","","","null","","79.5","","2","0","null","null","arrowup","[0.15,0.85,0.325,0.675]","","",""
"sailing-trial","117","549800","0.0-11.0-76.0","","","","false","","","","","","","","","","25","","74.40000000596046","","1","1","arrowleft","0","arrowright","[0.15,0.85,0.325,0.675]","","",""
"sailing-trial","118","551827","0.0-11.0-77.0","","","","false","","","","","","","","","","null","","170.09999999403954","","3","1","null","null","arrowup","[0.15,0.85,0.325,0.675]","","",""
"sailing-trial","119","554401","0.0-11.0-78.0","","","","false","","","","","","","","","","36.70000000298023","","55","","2","0","arrowright","1","arrowleft","[0.15,0.85,0.325,0.675]","","",""
"sailing-trial","120","556393","0.0-11.0-79.0","","","","false","","","","","","","","","","null","","99.5","","3","1","null","null","arrowup","[0.15,0.85,0.325,0.675]","","",""
"sailing-trial","121","559423","0.0-11.0-80.0","","","","false","","","","","","","","","","42.79999999701977","","152.90000000596046","","3","1","arrowright","1","arrowright","[0.15,0.85,0.325,0.675]","","",""
"sailing-trial","122","560954","0.0-11.0-81.0","","","","false","","","","","","","","","","null","","63.099999994039536","","2","0","null","null","arrowup","[0.15,0.85,0.325,0.675]","","",""
"sailing-trial","123","563709","0.0-11.0-82.0","","","","false","","","","","","","","","","158.20000000298023","","135.1000000089407","","3","0","arrowright","1","arrowright","[0.15,0.85,0.325,0.675]","","",""
"sailing-trial","124","565493","0.0-11.0-83.0","","","","false","","","","","","","","","","null","","153.1000000089407","","1","1","null","null","arrowup","[0.15,0.85,0.325,0.675]","","",""
"sailing-trial","125","568401","0.0-11.0-84.0","","","","false","","","","","","","","","","109.59999999403954","","44.79999999701977","","1","1","arrowleft","0","arrowright","[0.15,0.85,0.325,0.675]","","",""
"sailing-trial","126","569863","0.0-11.0-85.0","","","","false","","","","","","","","","","null","","167.1000000089407","","3","0","null","null","arrowup","[0.15,0.85,0.325,0.675]","","",""
"sailing-trial","127","573123","0.0-11.0-86.0","","","","false","","","","","","","","","","402.59999999403954","","121.30000001192093","","0","1","arrowleft","0","arrowleft","[0.325,0.675,0.15,0.85]","","",""
"sailing-trial","128","574528","0.0-11.0-87.0","","","","false","","","","","","","","","","null","","73.40000000596046","","1","0","null","null","arrowup","[0.325,0.675,0.15,0.85]","","",""
"sailing-trial","129","576918","0.0-11.0-88.0","","","","false","","","","","","","","","","72","","136.1000000089407","","3","0","arrowright","1","arrowright","[0.325,0.675,0.15,0.85]","","",""
"sailing-trial","130","578675","0.0-11.0-89.0","","","","false","","","","","","","","","","null","","156.59999999403954","","3","1","null","null","arrowup","[0.325,0.675,0.15,0.85]","","",""
"sailing-trial","131","581787","0.0-11.0-90.0","","","","false","","","","","","","","","","18.200000002980232","","242.70000000298023","","0","1","arrowleft","0","arrowleft","[0.325,0.675,0.15,0.85]","","",""
"sailing-trial","132","583692","0.0-11.0-91.0","","","","false","","","","","","","","","","null","","1.2999999970197678","","1","1","null","null","arrowup","[0.325,0.675,0.15,0.85]","","",""
"sailing-trial","133","586255","0.0-11.0-92.0","","","","false","","","","","","","","","","83.09999999403954","","106","","3","0","arrowright","1","arrowright","[0.325,0.675,0.15,0.85]","","",""
"sailing-trial","134","587578","0.0-11.0-93.0","","","","false","","","","","","","","","","null","","116.40000000596046","","0","0","null","null","arrowup","[0.325,0.675,0.15,0.85]","","",""
"sailing-trial","135","590193","0.0-11.0-94.0","","","","false","","","","","","","","","","93.79999999701977","","79.40000000596046","","0","0","arrowleft","0","arrowleft","[0.325,0.675,0.15,0.85]","","",""
"sailing-trial","136","591859","0.0-11.0-95.0","","","","false","","","","","","","","","","null","","46.599999994039536","","2","1","null","null","arrowup","[0.325,0.675,0.15,0.85]","","",""
"sailing-trial","137","594847","0.0-11.0-96.0","","","","false","","","","","","","","","","101.20000000298023","","4.600000008940697","","3","1","arrowright","1","arrowright","[0.325,0.675,0.15,0.85]","","",""
"sailing-trial","138","596152","0.0-11.0-97.0","","","","false","","","","","","","","","","null","","29.5","","2","0","null","null","arrowup","[0.325,0.675,0.15,0.85]","","",""
"sailing-trial","139","598592","0.0-11.0-98.0","","","","false","","","","","","","","","","112.70000000298023","","35.400000005960464","","2","0","arrowright","1","arrowleft","[0.325,0.675,0.15,0.85]","","",""
"sailing-trial","140","600040","0.0-11.0-99.0","","","","false","","","","","","","","","","null","","80.3999999910593","","0","0","null","null","arrowup","[0.325,0.675,0.15,0.85]","","",""
"sailing-trial","141","603060","0.0-11.0-100.0","","","","false","","","","","","","","","","112.5","","19.200000002980232","","3","1","arrowright","1","arrowright","[0.325,0.675,0.15,0.85]","","",""
"sailing-trial","142","604441","0.0-11.0-101.0","","","","false","","","","","","","","","","null","","37.29999999701977","","1","0","null","null","arrowup","[0.325,0.675,0.15,0.85]","","",""
"sailing-trial","143","607359","0.0-11.0-102.0","","","","false","","","","","","","","","","14","","166.09999999403954","","1","1","arrowleft","0","arrowright","[0.15,0.85,0.325,0.675]","","",""
"sailing-trial","144","608757","0.0-11.0-103.0","","","","false","","","","","","","","","","null","","178.80000001192093","","2","0","null","null","arrowup","[0.15,0.85,0.325,0.675]","","",""
"sailing-trial","145","611916","0.0-11.0-104.0","","","","false","","","","","","","","","","103.8999999910593","","65.30000001192093","","3","1","arrowright","1","arrowright","[0.15,0.85,0.325,0.675]","","",""
"sailing-trial","146","613411","0.0-11.0-105.0","","","","false","","","","","","","","","","null","","144.79999999701977","","0","0","null","null","arrowup","[0.15,0.85,0.325,0.675]","","",""
"sailing-trial","147","615887","0.0-11.0-106.0","","","","false","","","","","","","","","","44.79999999701977","","118.20000000298023","","2","0","arrowright","1","arrowleft","[0.15,0.85,0.325,0.675]","","",""
"sailing-trial","148","617094","0.0-11.0-107.0","","","","false","","","","","","","","","","null","","7.100000008940697","","2","0","null","null","arrowup","[0.15,0.85,0.325,0.675]","","",""
"sailing-trial","149","620134","0.0-11.0-108.0","","","","false","","","","","","","","","","152.20000000298023","","7.300000011920929","","3","1","arrowright","1","arrowright","[0.15,0.85,0.325,0.675]","","",""
"sailing-trial","150","621992","0.0-11.0-109.0","","","","false","","","","","","","","","","null","","89.20000000298023","","1","1","null","null","arrowup","[0.15,0.85,0.325,0.675]","","",""
"sailing-trial","151","624981","0.0-11.0-110.0","","","","false","","","","","","","","","","126.20000000298023","","120.79999999701977","","3","1","arrowright","1","arrowright","[0.15,0.85,0.325,0.675]","","",""
"sailing-trial","152","626991","0.0-11.0-111.0","","","","false","","","","","","","","","","null","","67.59999999403954","","1","1","null","null","arrowup","[0.15,0.85,0.325,0.675]","","",""
"sailing-trial","153","629410","0.0-11.0-112.0","","","","false","","","","","","","","","","1","","106.6000000089407","","3","0","arrowright","1","arrowright","[0.15,0.85,0.325,0.675]","","",""
"sailing-trial","154","631375","0.0-11.0-113.0","","","","false","","","","","","","","","","null","","105.1000000089407","","3","1","null","null","arrowup","[0.15,0.85,0.325,0.675]","","",""
"sailing-trial","155","634414","0.0-11.0-114.0","","","","false","","","","","","","","","","137.3999999910593","","132.70000000298023","","3","1","arrowright","1","arrowright","[0.15,0.85,0.325,0.675]","","",""
"sailing-trial","156","635571","0.0-11.0-115.0","","","","false","","","","","","","","","","null","","29","","0","0","null","null","arrowup","[0.15,0.85,0.325,0.675]","","",""
"sailing-trial","157","638635","0.0-11.0-116.0","","","","false","","","","","","","","","","278.6000000089407","","2.7000000029802322","","3","1","arrowright","1","arrowright","[0.15,0.85,0.325,0.675]","","",""
"sailing-trial","158","640425","0.0-11.0-117.0","","","","false","","","","","","","","","","null","","57.5","","0","1","null","null","arrowup","[0.15,0.85,0.325,0.675]","","",""
"sailing-trial","159","643459","0.0-11.0-118.0","","","","false","","","","","","","","","","97.29999999701977","","118.90000000596046","","3","1","arrowright","1","arrowright","[0.15,0.85,0.325,0.675]","","",""
"sailing-trial","160","644895","0.0-11.0-119.0","","","","false","","","","","","","","","","null","","12.600000008940697","","2","0","null","null","arrowup","[0.15,0.85,0.325,0.675]","","",""
"sailing-trial","161","647891","0.0-11.0-120.0","","","","false","","","","","","","","","","51.3999999910593","","178.90000000596046","","3","1","arrowright","1","arrowright","[0.15,0.85,0.325,0.675]","","",""
"sailing-trial","162","649081","0.0-11.0-121.0","","","","false","","","","","","","","","","null","","150.40000000596046","","0","0","null","null","arrowup","[0.15,0.85,0.325,0.675]","","",""
"sailing-trial","163","652059","0.0-11.0-122.0","","","","false","","","","","","","","","","147.3999999910593","","71.8999999910593","","3","1","arrowright","1","arrowright","[0.15,0.85,0.325,0.675]","","",""
"sailing-trial","164","653530","0.0-11.0-123.0","","","","false","","","","","","","","","","null","","97.59999999403954","","0","0","null","null","arrowup","[0.15,0.85,0.325,0.675]","","",""
"sailing-trial","165","655854","0.0-11.0-124.0","","","","false","","","","","","","","","","87.40000000596046","","9.200000002980232","","3","0","arrowright","1","arrowright","[0.15,0.85,0.325,0.675]","","",""
"sailing-trial","166","657658","0.0-11.0-125.0","","","","false","","","","","","","","","","null","","78.70000000298023","","2","1","null","null","arrowup","[0.15,0.85,0.325,0.675]","","",""
"sailing-trial","167","660164","0.0-11.0-126.0","","","","false","","","","","","","","","","80.90000000596046","","43.79999999701977","","2","0","arrowright","1","arrowleft","[0.325,0.675,0.15,0.85]","","",""
"sailing-trial","168","661347","0.0-11.0-127.0","","","","false","","","","","","","","","","null","","29","","2","0","null","null","arrowup","[0.325,0.675,0.15,0.85]","","",""
"sailing-trial","169","663682","0.0-11.0-128.0","","","","false","","","","","","","","","","46.70000000298023","","103","","0","0","arrowleft","0","arrowleft","[0.325,0.675,0.15,0.85]","","",""
"sailing-trial","170","666308","0.0-11.0-129.0","","","","false","","","","","","","","","","null","","1021","","3","1","null","null","arrowup","[0.325,0.675,0.15,0.85]","","",""
"sailing-trial","171","669430","0.0-11.0-130.0","","","","false","","","","","","","","","","86.29999999701977","","139.29999999701977","","1","1","arrowleft","0","arrowright","[0.325,0.675,0.15,0.85]","","",""
"sailing-trial","172","671326","0.0-11.0-131.0","","","","false","","","","","","","","","","null","","169.5","","1","1","null","null","arrowup","[0.325,0.675,0.15,0.85]","","",""
"sailing-trial","173","674537","0.0-11.0-132.0","","","","false","","","","","","","","","","113.3999999910593","","307.79999999701977","","1","1","arrowleft","0","arrowright","[0.325,0.675,0.15,0.85]","","",""
"sailing-trial","174","675705","0.0-11.0-133.0","","","","false","","","","","","","","","","null","","118.19999998807907","","1","0","null","null","arrowup","[0.325,0.675,0.15,0.85]","","",""
"sailing-trial","175","678890","0.0-11.0-134.0","","","","false","","","","","","","","","","242.19999998807907","","119.79999999701977","","3","1","arrowright","1","arrowright","[0.325,0.675,0.15,0.85]","","",""
"sailing-trial","176","680266","0.0-11.0-135.0","","","","false","","","","","","","","","","null","","35.70000000298023","","2","0","null","null","arrowup","[0.325,0.675,0.15,0.85]","","",""
"sailing-trial","177","682975","0.0-11.0-136.0","","","","false","","","","","","","","","","111.79999999701977","","294.1000000089407","","1","0","arrowleft","0","arrowright","[0.325,0.675,0.15,0.85]","","",""
"sailing-trial","178","684524","0.0-11.0-137.0","","","","false","","","","","","","","","","null","","433","","0","0","null","null","arrowup","[0.325,0.675,0.15,0.85]","","",""
"sailing-trial","179","687059","0.0-11.0-138.0","","","","false","","","","","","","","","","175.19999998807907","","50.80000001192093","","1","0","arrowleft","0","arrowright","[0.325,0.675,0.15,0.85]","","",""
"sailing-trial","180","688490","0.0-11.0-139.0","","","","false","","","","","","","","","","null","","125.20000000298023","","2","0","null","null","arrowup","[0.325,0.675,0.15,0.85]","","",""
"sailing-trial","181","691434","0.0-11.0-140.0","","","","false","","","","","","","","","","99.20000000298023","","97.70000000298023","","3","1","arrowright","1","arrowright","[0.325,0.675,0.15,0.85]","","",""
"sailing-trial","182","693276","0.0-11.0-141.0","","","","false","","","","","","","","","","null","","59.5","","1","1","null","null","arrowup","[0.325,0.675,0.15,0.85]","","",""
"sailing-trial","183","695865","0.0-11.0-142.0","","","","false","","","","","","","","","","136","","274.20000000298023","","3","0","arrowright","1","arrowright","[0.15,0.85,0.325,0.675]","","",""
"sailing-trial","184","697524","0.0-11.0-143.0","","","","false","","","","","","","","","","null","","73.1000000089407","","3","1","null","null","arrowup","[0.15,0.85,0.325,0.675]","","",""
"sailing-trial","185","701308","0.0-11.0-144.0","","","","false","","","","","","","","","","91.19999998807907","","30.099999994039536","","3","1","arrowright","1","arrowright","[0.15,0.85,0.325,0.675]","","",""
"sailing-trial","186","703025","0.0-11.0-145.0","","","","false","","","","","","","","","","null","","101","","0","1","null","null","arrowup","[0.15,0.85,0.325,0.675]","","",""
"sailing-trial","187","705399","0.0-11.0-146.0","","","","false","","","","","","","","","","68.19999998807907","","100.59999999403954","","0","0","arrowleft","0","arrowleft","[0.15,0.85,0.325,0.675]","","",""
"sailing-trial","188","707109","0.0-11.0-147.0","","","","false","","","","","","","","","","null","","113.1000000089407","","3","1","null","null","arrowup","[0.15,0.85,0.325,0.675]","","",""
"sailing-trial","189","710384","0.0-11.0-148.0","","","","false","","","","","","","","","","150.90000000596046","","300.59999999403954","","3","1","arrowright","1","arrowright","[0.15,0.85,0.325,0.675]","","",""
"sailing-trial","190","712025","0.0-11.0-149.0","","","","false","","","","","","","","","","null","","25.69999998807907","","3","1","null","null","arrowup","[0.15,0.85,0.325,0.675]","","",""
"sailing-trial","191","714840","0.0-11.0-150.0","","","","false","","","","","","","","","","20.899999991059303","","27.899999991059303","","3","1","arrowright","1","arrowright","[0.15,0.85,0.325,0.675]","","",""
"sailing-trial","192","715958","0.0-11.0-151.0","","","","false","","","","","","","","","","null","","8.099999994039536","","3","0","null","null","arrowup","[0.15,0.85,0.325,0.675]","","",""
"sailing-trial","193","719074","0.0-11.0-152.0","","","","false","","","","","","","","","","164.40000000596046","","44.5","","3","1","arrowright","1","arrowright","[0.15,0.85,0.325,0.675]","","",""
"sailing-trial","194","720892","0.0-11.0-153.0","","","","false","","","","","","","","","","null","","32.6000000089407","","3","1","null","null","arrowup","[0.15,0.85,0.325,0.675]","","",""
"sailing-trial","195","723863","0.0-11.0-154.0","","","","false","","","","","","","","","","126.70000000298023","","58.20000000298023","","3","1","arrowright","1","arrowright","[0.15,0.85,0.325,0.675]","","",""
"sailing-trial","196","725020","0.0-11.0-155.0","","","","false","","","","","","","","","","null","","1.800000011920929","","2","0","null","null","arrowup","[0.15,0.85,0.325,0.675]","","",""
"sailing-trial","197","728048","0.0-11.0-156.0","","","","false","","","","","","","","","","105.80000001192093","","34.20000000298023","","3","1","arrowright","1","arrowright","[0.15,0.85,0.325,0.675]","","",""
"sailing-trial","198","729416","0.0-11.0-157.0","","","","false","","","","","","","","","","null","","107.29999999701977","","2","0","null","null","arrowup","[0.15,0.85,0.325,0.675]","","",""
"sailing-trial","199","731791","0.0-11.0-158.0","","","","false","","","","","","","","","","69.3999999910593","","80.8999999910593","","3","0","arrowright","1","arrowright","[0.15,0.85,0.325,0.675]","","",""
"sailing-trial","200","733057","0.0-11.0-159.0","","","","false","","","","","","","","","","null","","205.29999999701977","","3","0","null","null","arrowup","[0.15,0.85,0.325,0.675]","","",""
"sailing-trial","201","735493","0.0-11.0-160.0","","","","false","","","","","","","","","","31.100000008940697","","52.29999999701977","","2","0","arrowright","1","arrowleft","[0.15,0.85,0.325,0.675]","","",""
"sailing-trial","202","737275","0.0-11.0-161.0","","","","false","","","","","","","","","","null","","178.29999999701977","","1","1","null","null","arrowup","[0.15,0.85,0.325,0.675]","","",""
"sailing-trial","203","740334","0.0-11.0-162.0","","","","false","","","","","","","","","","90.59999999403954","","166.80000001192093","","3","1","arrowright","1","arrowright","[0.325,0.675,0.15,0.85]","","",""
"sailing-trial","204","742041","0.0-11.0-163.0","","","","false","","","","","","","","","","null","","149.09999999403954","","2","1","null","null","arrowup","[0.325,0.675,0.15,0.85]","","",""
"sailing-trial","205","745157","0.0-11.0-164.0","","","","false","","","","","","","","","","115.59999999403954","","38.30000001192093","","3","1","arrowright","1","arrowright","[0.325,0.675,0.15,0.85]","","",""
"sailing-trial","206","746452","0.0-11.0-165.0","","","","false","","","","","","","","","","null","","155.70000000298023","","2","0","null","null","arrowup","[0.325,0.675,0.15,0.85]","","",""
"sailing-trial","207","749428","0.0-11.0-166.0","","","","false","","","","","","","","","","148.70000000298023","","77.8999999910593","","3","1","arrowright","1","arrowright","[0.325,0.675,0.15,0.85]","","",""
"sailing-trial","208","751110","0.0-11.0-167.0","","","","false","","","","","","","","","","null","","86.29999999701977","","1","1","null","null","arrowup","[0.325,0.675,0.15,0.85]","","",""
"sailing-trial","209","753917","0.0-11.0-168.0","","","","false","","","","","","","","","","54.5","","11.299999997019768","","1","1","arrowleft","0","arrowright","[0.325,0.675,0.15,0.85]","","",""
"sailing-trial","210","755259","0.0-11.0-169.0","","","","false","","","","","","","","","","null","","166.20000000298023","","0","0","null","null","arrowup","[0.325,0.675,0.15,0.85]","","",""
"sailing-trial","211","758124","0.0-11.0-170.0","","","","false","","","","","","","","","","85.09999999403954","","37","","1","1","arrowleft","0","arrowright","[0.325,0.675,0.15,0.85]","","",""
"sailing-trial","212","759807","0.0-11.0-171.0","","","","false","","","","","","","","","","null","","46.5","","3","1","null","null","arrowup","[0.325,0.675,0.15,0.85]","","",""
"sailing-trial","213","762650","0.0-11.0-172.0","","","","false","","","","","","","","","","67.5","","10.400000005960464","","3","1","arrowright","1","arrowright","[0.325,0.675,0.15,0.85]","","",""
"sailing-trial","214","763873","0.0-11.0-173.0","","","","false","","","","","","","","","","null","","138.8999999910593","","1","0","null","null","arrowup","[0.325,0.675,0.15,0.85]","","",""
"sailing-trial","215","766968","0.0-11.0-174.0","","","","false","","","","","","","","","","214.6000000089407","","71.59999999403954","","0","1","arrowleft","0","arrowleft","[0.325,0.675,0.15,0.85]","","",""
"sailing-trial","216","768176","0.0-11.0-175.0","","","","false","","","","","","","","","","null","","19","","2","0","null","null","arrowup","[0.325,0.675,0.15,0.85]","","",""
"sailing-trial","217","771325","0.0-11.0-176.0","","","","false","","","","","","","","","","34.5","","184.29999999701977","","3","1","arrowright","1","arrowright","[0.325,0.675,0.15,0.85]","","",""
"sailing-trial","218","772941","0.0-11.0-177.0","","","","false","","","","","","","","","","null","","1.5","","2","1","null","null","arrowup","[0.325,0.675,0.15,0.85]","","",""
"sailing-trial","219","776105","0.0-11.0-178.0","","","","false","","","","","","","","","","364.6000000089407","","30.900000005960464","","1","1","arrowleft","0","arrowright","[0.325,0.675,0.15,0.85]","","",""
"sailing-trial","220","777398","0.0-11.0-179.0","","","","false","","","","","","","","","","null","","125.79999999701977","","0","0","null","null","arrowup","[0.325,0.675,0.15,0.85]","","",""
"sailing-trial","221","780445","0.0-11.0-180.0","","","","false","","","","","","","","","","46.80000001192093","","165.90000000596046","","3","1","arrowright","1","arrowright","[0.325,0.675,0.15,0.85]","","",""
"sailing-trial","222","781754","0.0-11.0-181.0","","","","false","","","","","","","","","","null","","227.79999999701977","","2","0","null","null","arrowup","[0.325,0.675,0.15,0.85]","","",""
"sailing-trial","223","784308","0.0-11.0-182.0","","","","false","","","","","","","","","","183.90000000596046","","131.30000001192093","","0","0","arrowleft","0","arrowleft","[0.325,0.675,0.15,0.85]","","",""
"sailing-trial","224","786558","0.0-11.0-183.0","","","","false","","","","","","","","","","null","","468.70000000298023","","1","1","null","null","arrowup","[0.325,0.675,0.15,0.85]","","",""
"sailing-trial","225","789344","0.0-11.0-184.0","","","","false","","","","","","","","","","51.79999999701977","","13.5","","3","1","arrowright","1","arrowright","[0.15,0.85,0.325,0.675]","","",""
"sailing-trial","226","790559","0.0-11.0-185.0","","","","false","","","","","","","","","","null","","56.5","","2","0","null","null","arrowup","[0.15,0.85,0.325,0.675]","","",""
"sailing-trial","227","793630","0.0-11.0-186.0","","","","false","","","","","","","","","","240.79999999701977","","22.899999991059303","","3","1","arrowright","1","arrowright","[0.15,0.85,0.325,0.675]","","",""
"sailing-trial","228","795105","0.0-11.0-187.0","","","","false","","","","","","","","","","null","","264","","3","0","null","null","arrowup","[0.15,0.85,0.325,0.675]","","",""
"sailing-trial","229","797900","0.0-11.0-188.0","","","","false","","","","","","","","","","178.1000000089407","","174.19999998807907","","0","0","arrowleft","0","arrowleft","[0.15,0.85,0.325,0.675]","","",""
"sailing-trial","230","799274","0.0-11.0-189.0","","","","false","","","","","","","","","","null","","112.59999999403954","","2","0","null","null","arrowup","[0.15,0.85,0.325,0.675]","","",""
"sailing-trial","231","802245","0.0-11.0-190.0","","","","false","","","","","","","","","","91","","125.5","","3","1","arrowright","1","arrowright","[0.15,0.85,0.325,0.675]","","",""
"sailing-trial","232","803588","0.0-11.0-191.0","","","","false","","","","","","","","","","null","","191.5","","0","0","null","null","arrowup","[0.15,0.85,0.325,0.675]","","",""
"sailing-trial","233","806853","0.0-11.0-192.0","","","","false","","","","","","","","","","211.8999999910593","","290.40000000596046","","1","1","arrowleft","0","arrowright","[0.15,0.85,0.325,0.675]","","",""
"sailing-trial","234","808792","0.0-11.0-193.0","","","","false","","","","","","","","","","null","","245.80000001192093","","1","1","null","null","arrowup","[0.15,0.85,0.325,0.675]","","",""
"sailing-trial","235","811872","0.0-11.0-194.0","","","","false","","","","","","","","","","100.5","","135.09999999403954","","1","1","arrowleft","0","arrowright","[0.15,0.85,0.325,0.675]","","",""
"sailing-trial","236","813523","0.0-11.0-195.0","","","","false","","","","","","","","","","null","","2.300000011920929","","1","1","null","null","arrowup","[0.15,0.85,0.325,0.675]","","",""
"sailing-trial","237","815970","0.0-11.0-196.0","","","","false","","","","","","","","","","34.19999998807907","","47.099999994039536","","3","0","arrowright","1","arrowright","[0.15,0.85,0.325,0.675]","","",""
"sailing-trial","238","817723","0.0-11.0-197.0","","","","false","","","","","","","","","","null","","61","","1","1","null","null","arrowup","[0.15,0.85,0.325,0.675]","","",""
"sailing-trial","239","820505","0.0-11.0-198.0","","","","false","","","","","","","","","","24.200000002980232","","41","","1","1","arrowleft","0","arrowright","[0.15,0.85,0.325,0.675]","","",""
"sailing-trial","240","821743","0.0-11.0-199.0","","","","false","","","","","","","","","","null","","42.1000000089407","","0","0","null","null","arrowup","[0.15,0.85,0.325,0.675]","","",""
"sailing-trial","241","824701","0.0-11.0-200.0","","","","false","","","","","","","","","","31.399999991059303","","125.1000000089407","","1","1","arrowleft","0","arrowright","[0.325,0.675,0.15,0.85]","","",""
"sailing-trial","242","826390","0.0-11.0-201.0","","","","false","","","","","","","","","","null","","22.799999997019768","","0","1","null","null","arrowup","[0.325,0.675,0.15,0.85]","","",""
"sailing-trial","243","828805","0.0-11.0-202.0","","","","false","","","","","","","","","","22.899999991059303","","16.900000005960464","","1","0","arrowleft","0","arrowright","[0.325,0.675,0.15,0.85]","","",""
"sailing-trial","244","830258","0.0-11.0-203.0","","","","false","","","","","","","","","","null","","220.20000000298023","","1","0","null","null","arrowup","[0.325,0.675,0.15,0.85]","","",""
"sailing-trial","245","833326","0.0-11.0-204.0","","","","false","","","","","","","","","","32.400000005960464","","30.599999994039536","","0","1","arrowleft","0","arrowleft","[0.325,0.675,0.15,0.85]","","",""
"sailing-trial","246","834712","0.0-11.0-205.0","","","","false","","","","","","","","","","null","","136.70000000298023","","2","0","null","null","arrowup","[0.325,0.675,0.15,0.85]","","",""
"sailing-trial","247","837639","0.0-11.0-206.0","","","","false","","","","","","","","","","57","","53","","0","1","arrowleft","0","arrowleft","[0.325,0.675,0.15,0.85]","","",""
"sailing-trial","248","839439","0.0-11.0-207.0","","","","false","","","","","","","","","","null","","141.90000000596046","","0","1","null","null","arrowup","[0.325,0.675,0.15,0.85]","","",""
"sailing-trial","249","842255","0.0-11.0-208.0","","","","false","","","","","","","","","","326.79999999701977","","177.59999999403954","","0","0","arrowleft","0","arrowleft","[0.325,0.675,0.15,0.85]","","",""
"sailing-trial","250","844174","0.0-11.0-209.0","","","","false","","","","","","","","","","null","","279","","2","1","null","null","arrowup","[0.325,0.675,0.15,0.85]","","",""
"sailing-trial","251","846888","0.0-11.0-210.0","","","","false","","","","","","","","","","179.59999999403954","","161.40000000596046","","0","0","arrowleft","0","arrowleft","[0.325,0.675,0.15,0.85]","","",""
"sailing-trial","252","848199","0.0-11.0-211.0","","","","false","","","","","","","","","","null","","80.40000000596046","","0","0","null","null","arrowup","[0.325,0.675,0.15,0.85]","","",""
"sailing-trial","253","850643","0.0-11.0-212.0","","","","false","","","","","","","","","","50","","101.6000000089407","","2","0","arrowright","1","arrowleft","[0.325,0.675,0.15,0.85]","","",""
"sailing-trial","254","851965","0.0-11.0-213.0","","","","false","","","","","","","","","","null","","63.099999994039536","","2","0","null","null","arrowup","[0.325,0.675,0.15,0.85]","","",""
"sailing-trial","255","854807","0.0-11.0-214.0","","","","false","","","","","","","","","","43.1000000089407","","21.5","","3","1","arrowright","1","arrowright","[0.325,0.675,0.15,0.85]","","",""
"sailing-trial","256","856056","0.0-11.0-215.0","","","","false","","","","","","","","","","null","","60.5","","2","0","null","null","arrowup","[0.325,0.675,0.15,0.85]","","",""
"sailing-trial","257","859140","0.0-11.0-216.0","","","","false","","","","","","","","","","142.3999999910593","","27.400000005960464","","3","1","arrowright","1","arrowright","[0.675,0.325,0.85,0.15]","","",""
"sailing-trial","258","860419","0.0-11.0-217.0","","","","false","","","","","","","","","","null","","79.80000001192093","","1","0","null","null","arrowup","[0.675,0.325,0.85,0.15]","","",""
"sailing-trial","259","863141","0.0-11.0-218.0","","","","false","","","","","","","","","","152.29999999701977","","253.09999999403954","","3","0","arrowright","1","arrowright","[0.675,0.325,0.85,0.15]","","",""
"sailing-trial","260","865273","0.0-11.0-219.0","","","","false","","","","","","","","","","null","","354.59999999403954","","2","1","null","null","arrowup","[0.675,0.325,0.85,0.15]","","",""
"sailing-trial","261","868186","0.0-11.0-220.0","","","","false","","","","","","","","","","58.1000000089407","","11.699999988079071","","2","1","arrowright","1","arrowleft","[0.675,0.325,0.85,0.15]","","",""
"sailing-trial","262","869858","0.0-11.0-221.0","","","","false","","","","","","","","","","null","","25","","0","1","null","null","arrowup","[0.675,0.325,0.85,0.15]","","",""
"sailing-trial","263","873105","0.0-11.0-222.0","","","","false","","","","","","","","","","185.5","","161.5","","0","1","arrowleft","0","arrowleft","[0.675,0.325,0.85,0.15]","","",""
"sailing-trial","264","874923","0.0-11.0-223.0","","","","false","","","","","","","","","","null","","82.19999998807907","","0","1","null","null","arrowup","[0.675,0.325,0.85,0.15]","","",""
"sailing-trial","265","878148","0.0-11.0-224.0","","","","false","","","","","","","","","","44.1000000089407","","332.09999999403954","","0","1","arrowleft","0","arrowleft","[0.675,0.325,0.85,0.15]","","",""
"sailing-trial","266","879957","0.0-11.0-225.0","","","","false","","","","","","","","","","null","","52.5","","0","1","null","null","arrowup","[0.675,0.325,0.85,0.15]","","",""
"sailing-trial","267","882416","0.0-11.0-226.0","","","","false","","","","","","","","","","16.30000001192093","","54","","0","0","arrowleft","0","arrowleft","[0.675,0.325,0.85,0.15]","","",""
"sailing-trial","268","883729","0.0-11.0-227.0","","","","false","","","","","","","","","","null","","277.70000000298023","","3","0","null","null","arrowup","[0.675,0.325,0.85,0.15]","","",""
"sailing-trial","269","886790","0.0-11.0-228.0","","","","false","","","","","","","","","","194","","79.70000000298023","","1","1","arrowleft","0","arrowright","[0.675,0.325,0.85,0.15]","","",""
"sailing-trial","270","888052","0.0-11.0-229.0","","","","false","","","","","","","","","","null","","91.6000000089407","","1","0","null","null","arrowup","[0.675,0.325,0.85,0.15]","","",""
"sailing-trial","271","890666","0.0-11.0-230.0","","","","false","","","","","","","","","","101.5","","198.29999999701977","","0","0","arrowleft","0","arrowleft","[0.675,0.325,0.85,0.15]","","",""
"sailing-trial","272","891996","0.0-11.0-231.0","","","","false","","","","","","","","","","null","","95.20000000298023","","3","0","null","null","arrowup","[0.675,0.325,0.85,0.15]","","",""
"sailing-trial","273","895242","0.0-11.0-232.0","","","","false","","","","","","","","","","134.6000000089407","","182.8999999910593","","2","1","arrowright","1","arrowleft","[0.675,0.325,0.85,0.15]","","",""
"sailing-trial","274","896557","0.0-11.0-233.0","","","","false","","","","","","","","","","null","","92.69999998807907","","3","0","null","null","arrowup","[0.675,0.325,0.85,0.15]","","",""
"sailing-trial","275","899670","0.0-11.0-234.0","","","","false","","","","","","","","","","72.79999999701977","","155.5","","2","1","arrowright","1","arrowleft","[0.85,0.15,0.675,0.325]","","",""
"sailing-trial","276","900999","0.0-11.0-235.0","","","","false","","","","","","","","","","null","","112.5","","0","0","null","null","arrowup","[0.85,0.15,0.675,0.325]","","",""
"sailing-trial","277","904057","0.0-11.0-236.0","","","","false","","","","","","","","","","66.90000000596046","","97.70000000298023","","2","1","arrowright","1","arrowleft","[0.85,0.15,0.675,0.325]","","",""
"sailing-trial","278","905855","0.0-11.0-237.0","","","","false","","","","","","","","","","null","","91.09999999403954","","0","1","null","null","arrowup","[0.85,0.15,0.675,0.325]","","",""
"sailing-trial","279","908959","0.0-11.0-238.0","","","","false","","","","","","","","","","140.29999999701977","","138","","2","1","arrowright","1","arrowleft","[0.85,0.15,0.675,0.325]","","",""
"sailing-trial","280","910076","0.0-11.0-239.0","","","","false","","","","","","","","","","null","","71.20000000298023","","1","0","null","null","arrowup","[0.85,0.15,0.675,0.325]","","",""
"sailing-trial","281","912773","0.0-11.0-240.0","","","","false","","","","","","","","","","172.79999999701977","","204.90000000596046","","1","0","arrowleft","0","arrowright","[0.85,0.15,0.675,0.325]","","",""
"sailing-trial","282","914283","0.0-11.0-241.0","","","","false","","","","","","","","","","null","","217.70000000298023","","3","0","null","null","arrowup","[0.85,0.15,0.675,0.325]","","",""
"sailing-trial","283","917511","0.0-11.0-242.0","","","","false","","","","","","","","","","130.20000000298023","","239.59999999403954","","0","1","arrowleft","0","arrowleft","[0.85,0.15,0.675,0.325]","","",""
"sailing-trial","284","918804","0.0-11.0-243.0","","","","false","","","","","","","","","","null","","144.5","","3","0","null","null","arrowup","[0.85,0.15,0.675,0.325]","","",""
"sailing-trial","285","922038","0.0-11.0-244.0","","","","false","","","","","","","","","","118.3999999910593","","183.70000000298023","","0","1","arrowleft","0","arrowleft","[0.85,0.15,0.675,0.325]","","",""
"sailing-trial","286","923386","0.0-11.0-245.0","","","","false","","","","","","","","","","null","","137","","1","0","null","null","arrowup","[0.85,0.15,0.675,0.325]","","",""
"sailing-trial","287","926293","0.0-11.0-246.0","","","","false","","","","","","","","","","57.20000000298023","","39.5","","0","1","arrowleft","0","arrowleft","[0.85,0.15,0.675,0.325]","","",""
"sailing-trial","288","928056","0.0-11.0-247.0","","","","false","","","","","","","","","","null","","69.79999999701977","","3","1","null","null","arrowup","[0.85,0.15,0.675,0.325]","","",""
"sailing-trial","289","931156","0.0-11.0-248.0","","","","false","","","","","","","","","","70.5","","14.599999994039536","","2","1","arrowright","1","arrowleft","[0.85,0.15,0.675,0.325]","","",""
"sailing-trial","290","933105","0.0-11.0-249.0","","","","false","","","","","","","","","","null","","158","","0","1","null","null","arrowup","[0.85,0.15,0.675,0.325]","","",""
"sailing-trial","291","936292","0.0-11.0-250.0","","","","false","","","","","","","","","","147","","141.70000000298023","","2","1","arrowright","1","arrowleft","[0.675,0.325,0.85,0.15]","","",""
"sailing-trial","292","938156","0.0-11.0-251.0","","","","false","","","","","","","","","","null","","148.6000000089407","","1","1","null","null","arrowup","[0.675,0.325,0.85,0.15]","","",""
"sailing-trial","293","941289","0.0-11.0-252.0","","","","false","","","","","","","","","","146.29999999701977","","103.90000000596046","","2","1","arrowright","1","arrowleft","[0.675,0.325,0.85,0.15]","","",""
"sailing-trial","294","942495","0.0-11.0-253.0","","","","false","","","","","","","","","","null","","154.6000000089407","","3","0","null","null","arrowup","[0.675,0.325,0.85,0.15]","","",""
"sailing-trial","295","945639","0.0-11.0-254.0","","","","false","","","","","","","","","","302.90000000596046","","127.80000001192093","","0","1","arrowleft","0","arrowleft","[0.675,0.325,0.85,0.15]","","",""
"sailing-trial","296","947589","0.0-11.0-255.0","","","","false","","","","","","","","","","null","","129.09999999403954","","1","1","null","null","arrowup","[0.675,0.325,0.85,0.15]","","",""
"sailing-trial","297","950376","0.0-11.0-256.0","","","","false","","","","","","","","","","137.30000001192093","","241.59999999403954","","0","0","arrowleft","0","arrowleft","[0.675,0.325,0.85,0.15]","","",""
"sailing-trial","298","951717","0.0-11.0-257.0","","","","false","","","","","","","","","","null","","106.09999999403954","","1","0","null","null","arrowup","[0.675,0.325,0.85,0.15]","","",""
"sailing-trial","299","954465","0.0-11.0-258.0","","","","false","","","","","","","","","","67.20000000298023","","207.5","","1","0","arrowleft","0","arrowright","[0.675,0.325,0.85,0.15]","","",""
"sailing-trial","300","955971","0.0-11.0-259.0","","","","false","","","","","","","","","","null","","157.3999999910593","","3","0","null","null","arrowup","[0.675,0.325,0.85,0.15]","","",""
"sailing-trial","301","958554","0.0-11.0-260.0","","","","false","","","","","","","","","","171.70000000298023","","86.09999999403954","","2","0","arrowright","1","arrowleft","[0.675,0.325,0.85,0.15]","","",""
"sailing-trial","302","959902","0.0-11.0-261.0","","","","false","","","","","","","","","","null","","105.19999998807907","","1","0","null","null","arrowup","[0.675,0.325,0.85,0.15]","","",""
"sailing-trial","303","962592","0.0-11.0-262.0","","","","false","","","","","","","","","","158","","195.40000000596046","","3","0","arrowright","1","arrowright","[0.675,0.325,0.85,0.15]","","",""
"sailing-trial","304","964053","0.0-11.0-263.0","","","","false","","","","","","","","","","null","","136.6000000089407","","0","0","null","null","arrowup","[0.675,0.325,0.85,0.15]","","",""
"sailing-trial","305","967227","0.0-11.0-264.0","","","","false","","","","","","","","","","93","","210.20000000298023","","0","1","arrowleft","0","arrowleft","[0.675,0.325,0.85,0.15]","","",""
"sailing-trial","306","969055","0.0-11.0-265.0","","","","false","","","","","","","","","","null","","122","","3","1","null","null","arrowup","[0.675,0.325,0.85,0.15]","","",""
"sailing-trial","307","972283","0.0-11.0-266.0","","","","false","","","","","","","","","","169.70000000298023","","145.29999999701977","","0","1","arrowleft","0","arrowleft","[0.675,0.325,0.85,0.15]","","",""
"sailing-trial","308","974106","0.0-11.0-267.0","","","","false","","","","","","","","","","null","","144.5","","1","1","null","null","arrowup","[0.675,0.325,0.85,0.15]","","",""
"sailing-trial","309","977189","0.0-11.0-268.0","","","","false","","","","","","","","","","107.30000001192093","","170.20000000298023","","0","1","arrowleft","0","arrowleft","[0.675,0.325,0.85,0.15]","","",""
"sailing-trial","310","978471","0.0-11.0-269.0","","","","false","","","","","","","","","","null","","125","","0","0","null","null","arrowup","[0.675,0.325,0.85,0.15]","","",""
"sailing-trial","311","981524","0.0-11.0-270.0","","","","false","","","","","","","","","","177.40000000596046","","136","","2","1","arrowright","1","arrowleft","[0.85,0.15,0.675,0.325]","","",""
"sailing-trial","312","982688","0.0-11.0-271.0","","","","false","","","","","","","","","","null","","93","","1","0","null","null","arrowup","[0.85,0.15,0.675,0.325]","","",""
"sailing-trial","313","985588","0.0-11.0-272.0","","","","false","","","","","","","","","","311.40000000596046","","204.29999999701977","","1","0","arrowleft","0","arrowright","[0.85,0.15,0.675,0.325]","","",""
"sailing-trial","314","987471","0.0-11.0-273.0","","","","false","","","","","","","","","","null","","114.59999999403954","","1","1","null","null","arrowup","[0.85,0.15,0.675,0.325]","","",""
"sailing-trial","315","990325","0.0-11.0-274.0","","","","false","","","","","","","","","","49.6000000089407","","26.799999997019768","","0","1","arrowleft","0","arrowleft","[0.85,0.15,0.675,0.325]","","",""
"sailing-trial","316","991569","0.0-11.0-275.0","","","","false","","","","","","","","","","null","","81.5","","3","0","null","null","arrowup","[0.85,0.15,0.675,0.325]","","",""
"sailing-trial","317","994747","0.0-11.0-276.0","","","","false","","","","","","","","","","184.79999999701977","","100.90000000596046","","2","1","arrowright","1","arrowleft","[0.85,0.15,0.675,0.325]","","",""
"sailing-trial","318","995873","0.0-11.0-277.0","","","","false","","","","","","","","","","null","","49.20000000298023","","3","0","null","null","arrowup","[0.85,0.15,0.675,0.325]","","",""
"sailing-trial","319","998438","0.0-11.0-278.0","","","","false","","","","","","","","","","169.29999999701977","","53","","2","0","arrowright","1","arrowleft","[0.85,0.15,0.675,0.325]","","",""
"sailing-trial","320","1000238","0.0-11.0-279.0","","","","false","","","","","","","","","","null","","102.8999999910593","","3","1","null","null","arrowup","[0.85,0.15,0.675,0.325]","","",""
"sailing-trial","321","1002881","0.0-11.0-280.0","","","","false","","","","","","","","","","91.1000000089407","","143.20000000298023","","2","0","arrowright","1","arrowleft","[0.85,0.15,0.675,0.325]","","",""
"sailing-trial","322","1004705","0.0-11.0-281.0","","","","false","","","","","","","","","","null","","135.79999999701977","","3","1","null","null","arrowup","[0.85,0.15,0.675,0.325]","","",""
"sailing-trial","323","1007179","0.0-11.0-282.0","","","","false","","","","","","","","","","20.5","","187","","3","0","arrowright","1","arrowright","[0.85,0.15,0.675,0.325]","","",""
"sailing-trial","324","1008905","0.0-11.0-283.0","","","","false","","","","","","","","","","null","","18.700000002980232","","0","1","null","null","arrowup","[0.85,0.15,0.675,0.325]","","",""
"sailing-trial","325","1012039","0.0-11.0-284.0","","","","false","","","","","","","","","","109.59999999403954","","260.59999999403954","","0","1","arrowleft","0","arrowleft","[0.85,0.15,0.675,0.325]","","",""
"sailing-trial","326","1013905","0.0-11.0-285.0","","","","false","","","","","","","","","","null","","52.099999994039536","","2","1","null","null","arrowup","[0.85,0.15,0.675,0.325]","","",""
"sailing-trial","327","1017032","0.0-11.0-286.0","","","","false","","","","","","","","","","114.19999998807907","","109.19999998807907","","0","1","arrowleft","0","arrowleft","[0.85,0.15,0.675,0.325]","","",""
"sailing-trial","328","1018208","0.0-11.0-287.0","","","","false","","","","","","","","","","null","","108.8999999910593","","1","0","null","null","arrowup","[0.85,0.15,0.675,0.325]","","",""
"sailing-trial","329","1021223","0.0-11.0-288.0","","","","false","","","","","","","","","","103.59999999403954","","59","","0","1","arrowleft","0","arrowleft","[0.325,0.675,0.15,0.85]","","",""
"sailing-trial","330","1022938","0.0-11.0-289.0","","","","false","","","","","","","","","","null","","76.20000000298023","","1","1","null","null","arrowup","[0.325,0.675,0.15,0.85]","","",""
"sailing-trial","331","1025448","0.0-11.0-290.0","","","","false","","","","","","","","","","139.20000000298023","","81.6000000089407","","0","0","arrowleft","0","arrowleft","[0.325,0.675,0.15,0.85]","","",""
"sailing-trial","332","1026982","0.0-11.0-291.0","","","","false","","","","","","","","","","null","","430.40000000596046","","0","0","null","null","arrowup","[0.325,0.675,0.15,0.85]","","",""
"sailing-trial","333","1029556","0.0-11.0-292.0","","","","false","","","","","","","","","","173.59999999403954","","88.20000000298023","","2","0","arrowright","1","arrowleft","[0.325,0.675,0.15,0.85]","","",""
"sailing-trial","334","1031389","0.0-11.0-293.0","","","","false","","","","","","","","","","null","","48.20000000298023","","3","1","null","null","arrowup","[0.325,0.675,0.15,0.85]","","",""
"sailing-trial","335","1034389","0.0-11.0-294.0","","","","false","","","","","","","","","","18.899999991059303","","95.69999998807907","","2","1","arrowright","1","arrowleft","[0.325,0.675,0.15,0.85]","","",""
"sailing-trial","336","1035876","0.0-11.0-295.0","","","","false","","","","","","","","","","null","","100.90000000596046","","0","0","null","null","arrowup","[0.325,0.675,0.15,0.85]","","",""
"sailing-trial","337","1038391","0.0-11.0-296.0","","","","false","","","","","","","","","","154.09999999403954","","143.69999998807907","","1","0","arrowleft","0","arrowright","[0.325,0.675,0.15,0.85]","","",""
"sailing-trial","338","1039989","0.0-11.0-297.0","","","","false","","","","","","","","","","null","","35.099999994039536","","1","1","null","null","arrowup","[0.325,0.675,0.15,0.85]","","",""
"sailing-trial","339","1042822","0.0-11.0-298.0","","","","false","","","","","","","","","","77.70000000298023","","64.6000000089407","","3","1","arrowright","1","arrowright","[0.325,0.675,0.15,0.85]","","",""
"sailing-trial","340","1044572","0.0-11.0-299.0","","","","false","","","","","","","","","","null","","129.6000000089407","","1","1","null","null","arrowup","[0.325,0.675,0.15,0.85]","","",""
"sailing-trial","341","1047521","0.0-11.0-300.0","","","","false","","","","","","","","","","180.20000000298023","","25.099999994039536","","3","1","arrowright","1","arrowright","[0.325,0.675,0.15,0.85]","","",""
"sailing-trial","342","1049203","0.0-11.0-301.0","","","","false","","","","","","","","","","null","","82.40000000596046","","3","1","null","null","arrowup","[0.325,0.675,0.15,0.85]","","",""
"sailing-trial","343","1052373","0.0-11.0-302.0","","","","false","","","","","","","","","","207.20000000298023","","208.09999999403954","","3","1","arrowright","1","arrowright","[0.325,0.675,0.15,0.85]","","",""
"sailing-trial","344","1053617","0.0-11.0-303.0","","","","false","","","","","","","","","","null","","150.79999999701977","","0","0","null","null","arrowup","[0.325,0.675,0.15,0.85]","","",""
"sailing-trial","345","1056923","0.0-11.0-304.0","","","","false","","","","","","","","","","337.29999999701977","","201.90000000596046","","3","1","arrowright","1","arrowright","[0.325,0.675,0.15,0.85]","","",""
"sailing-trial","346","1058573","0.0-11.0-305.0","","","","false","","","","","","","","","","null","","2.2999999970197678","","3","1","null","null","arrowup","[0.325,0.675,0.15,0.85]","","",""
"sailing-trial","347","1061056","0.0-11.0-306.0","","","","false","","","","","","","","","","220.09999999403954","","56.5","","3","0","arrowright","1","arrowright","[0.15,0.85,0.325,0.675]","","",""
"sailing-trial","348","1062938","0.0-11.0-307.0","","","","false","","","","","","","","","","null","","218.79999999701977","","3","1","null","null","arrowup","[0.15,0.85,0.325,0.675]","","",""
"sailing-trial","349","1065903","0.0-11.0-308.0","","","","false","","","","","","","","","","102.6000000089407","","106.20000000298023","","1","1","arrowleft","0","arrowright","[0.15,0.85,0.325,0.675]","","",""
"sailing-trial","350","1067539","0.0-11.0-309.0","","","","false","","","","","","","","","","null","","31.700000002980232","","0","1","null","null","arrowup","[0.15,0.85,0.325,0.675]","","",""
"sailing-trial","351","1070540","0.0-11.0-310.0","","","","false","","","","","","","","","","142.3999999910593","","77.8999999910593","","1","1","arrowleft","0","arrowright","[0.15,0.85,0.325,0.675]","","",""
"sailing-trial","352","1071733","0.0-11.0-311.0","","","","false","","","","","","","","","","null","","47.30000001192093","","2","0","null","null","arrowup","[0.15,0.85,0.325,0.675]","","",""
"sailing-trial","353","1074233","0.0-11.0-312.0","","","","false","","","","","","","","","","80.5","","0.6000000089406967","","0","0","arrowleft","0","arrowleft","[0.15,0.85,0.325,0.675]","","",""
"sailing-trial","354","1075587","0.0-11.0-313.0","","","","false","","","","","","","","","","null","","190.5","","0","0","null","null","arrowup","[0.15,0.85,0.325,0.675]","","",""
"sailing-trial","355","1078552","0.0-11.0-314.0","","","","false","","","","","","","","","","125","","117.5","","1","1","arrowleft","0","arrowright","[0.15,0.85,0.325,0.675]","","",""
"sailing-trial","356","1079693","0.0-11.0-315.0","","","","false","","","","","","","","","","null","","11.400000005960464","","0","0","null","null","arrowup","[0.15,0.85,0.325,0.675]","","",""
"sailing-trial","357","1082312","0.0-11.0-316.0","","","","false","","","","","","","","","","163.70000000298023","","79","","2","0","arrowright","1","arrowleft","[0.15,0.85,0.325,0.675]","","",""
"sailing-trial","358","1083613","0.0-11.0-317.0","","","","false","","","","","","","","","","null","","223.79999999701977","","0","0","null","null","arrowup","[0.15,0.85,0.325,0.675]","","",""
"sailing-trial","359","1086586","0.0-11.0-318.0","","","","false","","","","","","","","","","110.09999999403954","","56.29999999701977","","1","1","arrowleft","0","arrowright","[0.15,0.85,0.325,0.675]","","",""
"sailing-trial","360","1088372","0.0-11.0-319.0","","","","false","","","","","","","","","","null","","31.799999997019768","","1","1","null","null","arrowup","[0.15,0.85,0.325,0.675]","","",""
"sailing-trial","361","1091491","0.0-11.0-320.0","","","","false","","","","","","","","","","65.29999999701977","","87.5","","3","1","arrowright","1","arrowright","[0.15,0.85,0.325,0.675]","","",""
"sailing-trial","362","1093137","0.0-11.0-321.0","","","","false","","","","","","","","","","null","","29.299999997019768","","3","1","null","null","arrowup","[0.15,0.85,0.325,0.675]","","",""
"sailing-trial","363","1096173","0.0-11.0-322.0","","","","false","","","","","","","","","","141.8999999910593","","23.399999991059303","","1","1","arrowleft","0","arrowright","[0.15,0.85,0.325,0.675]","","",""
"sailing-trial","364","1098071","0.0-11.0-323.0","","","","false","","","","","","","","","","null","","186.6000000089407","","3","1","null","null","arrowup","[0.15,0.85,0.325,0.675]","","",""
"sailing-trial","365","1101523","0.0-11.0-324.0","","","","false","","","","","","","","","","671.9000000059605","","32.79999999701977","","3","1","arrowright","1","arrowright","[0.15,0.85,0.325,0.675]","","",""
"sailing-trial","366","1102688","0.0-11.0-325.0","","","","false","","","","","","","","","","null","","0.09999999403953552","","0","0","null","null","arrowup","[0.15,0.85,0.325,0.675]","","",""
"sailing-trial","367","1106225","0.0-11.0-326.0","","","","false","","","","","","","","","","426.59999999403954","","206.70000000298023","","1","1","arrowleft","0","arrowright","[0.15,0.85,0.325,0.675]","","",""
"sailing-trial","368","1107888","0.0-11.0-327.0","","","","false","","","","","","","","","","null","","69.5","","3","1","null","null","arrowup","[0.15,0.85,0.325,0.675]","","",""
"sailing-trial","369","1110603","0.0-11.0-328.0","","","","false","","","","","","","","","","156.29999999701977","","141.90000000596046","","1","0","arrowleft","0","arrowright","[0.675,0.325,0.85,0.15]","","",""
"sailing-trial","370","1112436","0.0-11.0-329.0","","","","false","","","","","","","","","","null","","204.09999999403954","","0","1","null","null","arrowup","[0.675,0.325,0.85,0.15]","","",""
"sailing-trial","371","1115057","0.0-11.0-330.0","","","","false","","","","","","","","","","125.40000000596046","","48.79999999701977","","1","0","arrowleft","0","arrowright","[0.675,0.325,0.85,0.15]","","",""
"sailing-trial","372","1116904","0.0-11.0-331.0","","","","false","","","","","","","","","","null","","91","","2","1","null","null","arrowup","[0.675,0.325,0.85,0.15]","","",""
"sailing-trial","373","1119445","0.0-11.0-332.0","","","","false","","","","","","","","","","38.8999999910593","","16.099999994039536","","3","0","arrowright","1","arrowright","[0.675,0.325,0.85,0.15]","","",""
"sailing-trial","374","1120968","0.0-11.0-333.0","","","","false","","","","","","","","","","null","","486.59999999403954","","3","0","null","null","arrowup","[0.675,0.325,0.85,0.15]","","",""
"sailing-trial","375","1123990","0.0-11.0-334.0","","","","false","","","","","","","","","","99.69999998807907","","81","","2","1","arrowright","1","arrowleft","[0.675,0.325,0.85,0.15]","","",""
"sailing-trial","376","1125135","0.0-11.0-335.0","","","","false","","","","","","","","","","null","","35","","1","0","null","null","arrowup","[0.675,0.325,0.85,0.15]","","",""
"sailing-trial","377","1128259","0.0-11.0-336.0","","","","false","","","","","","","","","","205.6000000089407","","22.5","","2","1","arrowright","1","arrowleft","[0.675,0.325,0.85,0.15]","","",""
"sailing-trial","378","1130035","0.0-11.0-337.0","","","","false","","","","","","","","","","null","","173.70000000298023","","1","1","null","null","arrowup","[0.675,0.325,0.85,0.15]","","",""
"sailing-trial","379","1133116","0.0-11.0-338.0","","","","false","","","","","","","","","","72.19999998807907","","49.6000000089407","","2","1","arrowright","1","arrowleft","[0.675,0.325,0.85,0.15]","","",""
"sailing-trial","380","1134807","0.0-11.0-339.0","","","","false","","","","","","","","","","null","","80.1000000089407","","0","1","null","null","arrowup","[0.675,0.325,0.85,0.15]","","",""
"sailing-trial","381","1137885","0.0-11.0-340.0","","","","false","","","","","","","","","","40.5","","222","","2","1","arrowright","1","arrowleft","[0.675,0.325,0.85,0.15]","","",""
"sailing-trial","382","1139246","0.0-11.0-341.0","","","","false","","","","","","","","","","null","","161.29999999701977","","2","0","null","null","arrowup","[0.675,0.325,0.85,0.15]","","",""
"sailing-trial","383","1142448","0.0-11.0-342.0","","","","false","","","","","","","","","","149.79999999701977","","250.1000000089407","","2","1","arrowright","1","arrowleft","[0.675,0.325,0.85,0.15]","","",""
"sailing-trial","384","1144203","0.0-11.0-343.0","","","","false","","","","","","","","","","null","","85.29999999701977","","0","1","null","null","arrowup","[0.675,0.325,0.85,0.15]","","",""
"sailing-trial","385","1147505","0.0-11.0-344.0","","","","false","","","","","","","","","","151.09999999403954","","187","","2","1","arrowright","1","arrowleft","[0.85,0.15,0.675,0.325]","","",""
"sailing-trial","386","1148677","0.0-11.0-345.0","","","","false","","","","","","","","","","null","","26.700000002980232","","1","0","null","null","arrowup","[0.85,0.15,0.675,0.325]","","",""
"sailing-trial","387","1151287","0.0-11.0-346.0","","","","false","","","","","","","","","","269.5","","31.200000002980232","","3","0","arrowright","1","arrowright","[0.85,0.15,0.675,0.325]","","",""
"sailing-trial","388","1152426","0.0-11.0-347.0","","","","false","","","","","","","","","","null","","74.40000000596046","","1","0","null","null","arrowup","[0.85,0.15,0.675,0.325]","","",""
"sailing-trial","389","1155572","0.0-11.0-348.0","","","","false","","","","","","","","","","209.20000000298023","","29.799999997019768","","2","1","arrowright","1","arrowleft","[0.85,0.15,0.675,0.325]","","",""
"sailing-trial","390","1157237","0.0-11.0-349.0","","","","false","","","","","","","","","","null","","55.5","","0","1","null","null","arrowup","[0.85,0.15,0.675,0.325]","","",""
"sailing-trial","391","1160203","0.0-11.0-350.0","","","","false","","","","","","","","","","66.69999998807907","","92","","2","1","arrowright","1","arrowleft","[0.85,0.15,0.675,0.325]","","",""
"sailing-trial","392","1162135","0.0-11.0-351.0","","","","false","","","","","","","","","","null","","141.1000000089407","","3","1","null","null","arrowup","[0.85,0.15,0.675,0.325]","","",""
"sailing-trial","393","1165344","0.0-11.0-352.0","","","","false","","","","","","","","","","189","","135.59999999403954","","2","1","arrowright","1","arrowleft","[0.85,0.15,0.675,0.325]","","",""
"sailing-trial","394","1167353","0.0-11.0-353.0","","","","false","","","","","","","","","","null","","209.5","","0","1","null","null","arrowup","[0.85,0.15,0.675,0.325]","","",""
"sailing-trial","395","1169840","0.0-11.0-354.0","","","","false","","","","","","","","","","70.59999999403954","","175","","2","0","arrowright","1","arrowleft","[0.85,0.15,0.675,0.325]","","",""
"sailing-trial","396","1171987","0.0-11.0-355.0","","","","false","","","","","","","","","","null","","417.09999999403954","","0","1","null","null","arrowup","[0.85,0.15,0.675,0.325]","","",""
"sailing-trial","397","1174330","0.0-11.0-356.0","","","","false","","","","","","","","","","72.20000000298023","","36.1000000089407","","1","0","arrowleft","0","arrowright","[0.85,0.15,0.675,0.325]","","",""
"sailing-trial","398","1176052","0.0-11.0-357.0","","","","false","","","","","","","","","","null","","122.59999999403954","","3","1","null","null","arrowup","[0.85,0.15,0.675,0.325]","","",""
"sailing-trial","399","1179183","0.0-11.0-358.0","","","","false","","","","","","","","","","1.5","","227.8999999910593","","3","1","arrowright","1","arrowright","[0.85,0.15,0.675,0.325]","","",""
"sailing-trial","400","1180478","0.0-11.0-359.0","","","","false","","","","","","","","","","null","","183.30000001192093","","3","0","null","null","arrowup","[0.85,0.15,0.675,0.325]","","",""
"sailing-trial","401","1183031","0.0-11.0-360.0","","","","false","","","","","","","","","","251.80000001192093","","47","","3","0","arrowright","1","arrowright","[0.85,0.15,0.675,0.325]","","",""
"sailing-trial","402","1184871","0.0-11.0-361.0","","","","false","","","","","","","","","","null","","177.1000000089407","","2","1","null","null","arrowup","[0.85,0.15,0.675,0.325]","","",""
"sailing-trial","403","1187433","0.0-11.0-362.0","","","","false","","","","","","","","","","71","","117.09999999403954","","3","0","arrowright","1","arrowright","[0.15,0.85,0.325,0.675]","","",""
"sailing-trial","404","1191020","0.0-11.0-363.0","","","","false","","","","","","","","","","null","","2439.7999999970198","","1","0","null","null","arrowup","[0.15,0.85,0.325,0.675]","","",""
"sailing-trial","405","1193643","0.0-11.0-364.0","","","","false","","","","","","","","","","156.70000000298023","","69.90000000596046","","2","0","arrowright","1","arrowleft","[0.15,0.85,0.325,0.675]","","",""
"sailing-trial","406","1195518","0.0-11.0-365.0","","","","false","","","","","","","","","","null","","131.3999999910593","","2","1","null","null","arrowup","[0.15,0.85,0.325,0.675]","","",""
"sailing-trial","407","1198448","0.0-11.0-366.0","","","","false","","","","","","","","","","24.100000008940697","","146.69999998807907","","1","1","arrowleft","0","arrowright","[0.15,0.85,0.325,0.675]","","",""
"sailing-trial","408","1199800","0.0-11.0-367.0","","","","false","","","","","","","","","","null","","57.19999998807907","","3","0","null","null","arrowup","[0.15,0.85,0.325,0.675]","","",""
"sailing-trial","409","1202772","0.0-11.0-368.0","","","","false","","","","","","","","","","59.20000000298023","","146.6000000089407","","1","1","arrowleft","0","arrowright","[0.15,0.85,0.325,0.675]","","",""
"sailing-trial","410","1204179","0.0-11.0-369.0","","","","false","","","","","","","","","","null","","196.70000000298023","","2","0","null","null","arrowup","[0.15,0.85,0.325,0.675]","","",""
"sailing-trial","411","1207240","0.0-11.0-370.0","","","","false","","","","","","","","","","165.79999999701977","","156.70000000298023","","1","1","arrowleft","0","arrowright","[0.15,0.85,0.325,0.675]","","",""
"sailing-trial","412","1209053","0.0-11.0-371.0","","","","false","","","","","","","","","","null","","156.70000000298023","","2","1","null","null","arrowup","[0.15,0.85,0.325,0.675]","","",""
"sailing-trial","413","1212098","0.0-11.0-372.0","","","","false","","","","","","","","","","147.79999999701977","","42.599999994039536","","1","1","arrowleft","0","arrowright","[0.15,0.85,0.325,0.675]","","",""
"sailing-trial","414","1213338","0.0-11.0-373.0","","","","false","","","","","","","","","","null","","34.20000000298023","","0","0","null","null","arrowup","[0.15,0.85,0.325,0.675]","","",""
"sailing-trial","415","1215900","0.0-11.0-374.0","","","","false","","","","","","","","","","215.40000000596046","","161.90000000596046","","2","0","arrowright","1","arrowleft","[0.15,0.85,0.325,0.675]","","",""
"sailing-trial","416","1217270","0.0-11.0-375.0","","","","false","","","","","","","","","","null","","269.70000000298023","","0","0","null","null","arrowup","[0.15,0.85,0.325,0.675]","","",""
"sailing-trial","417","1220736","0.0-11.0-376.0","","","","false","","","","","","","","","","495.6000000089407","","83","","1","1","arrowleft","0","arrowright","[0.15,0.85,0.325,0.675]","","",""
"sailing-trial","418","1222452","0.0-11.0-377.0","","","","false","","","","","","","","","","null","","135.20000000298023","","2","1","null","null","arrowup","[0.15,0.85,0.325,0.675]","","",""
"sailing-trial","419","1225520","0.0-11.0-378.0","","","","false","","","","","","","","","","159.79999999701977","","36.79999999701977","","1","1","arrowleft","0","arrowright","[0.15,0.85,0.325,0.675]","","",""
"sailing-trial","420","1227219","0.0-11.0-379.0","","","","false","","","","","","","","","","null","","91.20000000298023","","1","1","null","null","arrowup","[0.15,0.85,0.325,0.675]","","",""
"sailing-trial","421","1229690","0.0-11.0-380.0","","","","false","","","","","","","","","","131.90000000596046","","153.40000000596046","","0","0","arrowleft","0","arrowleft","[0.325,0.675,0.15,0.85]","","",""
"sailing-trial","422","1231618","0.0-11.0-381.0","","","","false","","","","","","","","","","null","","336.90000000596046","","0","1","null","null","arrowup","[0.325,0.675,0.15,0.85]","","",""
"sailing-trial","423","1233989","0.0-11.0-382.0","","","","false","","","","","","","","","","17.400000005960464","","78.1000000089407","","1","0","arrowleft","0","arrowright","[0.325,0.675,0.15,0.85]","","",""
"sailing-trial","424","1235283","0.0-11.0-383.0","","","","false","","","","","","","","","","null","","221.3999999910593","","2","0","null","null","arrowup","[0.325,0.675,0.15,0.85]","","",""
"sailing-trial","425","1237765","0.0-11.0-384.0","","","","false","","","","","","","","","","76.8999999910593","","38.19999998807907","","0","0","arrowleft","0","arrowleft","[0.325,0.675,0.15,0.85]","","",""
"sailing-trial","426","1238992","0.0-11.0-385.0","","","","false","","","","","","","","","","null","","69","","0","0","null","null","arrowup","[0.325,0.675,0.15,0.85]","","",""
"sailing-trial","427","1241939","0.0-11.0-386.0","","","","false","","","","","","","","","","129.8999999910593","","33.8999999910593","","3","1","arrowright","1","arrowright","[0.325,0.675,0.15,0.85]","","",""
"sailing-trial","428","1243703","0.0-11.0-387.0","","","","false","","","","","","","","","","null","","171.09999999403954","","2","1","null","null","arrowup","[0.325,0.675,0.15,0.85]","","",""
"sailing-trial","429","1246667","0.0-11.0-388.0","","","","false","","","","","","","","","","1.3999999910593033","","31.400000005960464","","3","1","arrowright","1","arrowright","[0.325,0.675,0.15,0.85]","","",""
"sailing-trial","430","1248720","0.0-11.0-389.0","","","","false","","","","","","","","","","null","","298.79999999701977","","3","1","null","null","arrowup","[0.325,0.675,0.15,0.85]","","",""
"sailing-trial","431","1251747","0.0-11.0-390.0","","","","false","","","","","","","","","","144.09999999403954","","83.1000000089407","","3","1","arrowright","1","arrowright","[0.325,0.675,0.15,0.85]","","",""
"sailing-trial","432","1253535","0.0-11.0-391.0","","","","false","","","","","","","","","","null","","191.79999999701977","","1","1","null","null","arrowup","[0.325,0.675,0.15,0.85]","","",""
"sailing-trial","433","1256647","0.0-11.0-392.0","","","","false","","","","","","","","","","213.90000000596046","","87.20000000298023","","3","1","arrowright","1","arrowright","[0.325,0.675,0.15,0.85]","","",""
"sailing-trial","434","1257892","0.0-11.0-393.0","","","","false","","","","","","","","","","null","","50.599999994039536","","2","0","null","null","arrowup","[0.325,0.675,0.15,0.85]","","",""
"sailing-trial","435","1261235","0.0-11.0-394.0","","","","false","","","","","","","","","","357.29999999701977","","184.40000000596046","","3","1","arrowright","1","arrowright","[0.325,0.675,0.15,0.85]","","",""
"sailing-trial","436","1262778","0.0-11.0-395.0","","","","false","","","","","","","","","","null","","423.6000000089407","","2","0","null","null","arrowup","[0.325,0.675,0.15,0.85]","","",""
"sailing-trial","437","1265968","0.0-11.0-396.0","","","","false","","","","","","","","","","329.1000000089407","","78.29999999701977","","3","1","arrowright","1","arrowright","[0.325,0.675,0.15,0.85]","","",""
"sailing-trial","438","1267149","0.0-11.0-397.0","","","","false","","","","","","","","","","null","","42.599999994039536","","0","0","null","null","arrowup","[0.325,0.675,0.15,0.85]","","",""
"sailing-trial","439","1270606","0.0-11.0-398.0","","","","false","","","","","","","","","","711.7000000029802","","21.299999997019768","","3","1","arrowright","1","arrowright","[0.325,0.675,0.15,0.85]","","",""
"sailing-trial","440","1272268","0.0-11.0-399.0","","","","false","","","","","","","","","","null","","1","","1","1","null","null","arrowup","[0.325,0.675,0.15,0.85]","","",""
"instructions","441","1272469","0.0-12.0","","","","","","","","","","200.59999999403954","","","","","","","","","","","","","","","","[{""page_index"":0,""viewing_time"":200.29999999701977}]"
"survey-debrief","442","1297240","0.0-13.0","","","","","","","","","","24768.69999998808","","","","","","","","","","","","","","{""difficulty"":""4"",""fun"":""1"",""clarity"":""5"",""strategy"":""Not really, just kept choosing things that seemed to have consistent treasure"",""feedback"":""No""}","",""
