"trial_type","trial_index","time_elapsed","internal_node_id","value","metadata","success","timeout","failed_images","failed_audio","failed_video","browser_interaction","low_quality","rt","stimulus","response","button_pressed","island_rt","island_response","boat_rt","boat_response","boat","reward","island_key","island","boat_key","reward_probabilities","responses","num_errors","view_history"
"pavlovia","0","5","0.0-0.0","","","","","","","","","","","","","","","","","","","","","","","","","",""
"call-function","1","6","0.0-1.0","","{""task_version"":""sailing_part1_v1"",""task_condition"":""good"",""boats"":[""C"",""A"",""B"",""D""],""boats_demo"":[""F"",""H"",""G"",""E""],""islands"":[""A"",""B""],""subject_id"":""14786"",""age"":""11"",""gender"":""Male""}","","","","","","","","","","","","","","","","","","","","","","","",""
"preload","2","8724","0.0-2.0","","","true","false","[]","[]","[]","[{""event"":""fullscreenenter"",""trial"":3,""time"":27709}]","false","","","","","","","","","","","","","","","","",""
"fullscreen","3","28672","0.0-3.0","","","true","","","","","","","","","","","","","","","","","","","","","","",""
"audio-keyboard-response","4","36460","0.0-4.0-0.0","","","","","","","","","","6701.333333333333","audio/beep_loop.wav","audiovolumedown","","","","","","","","","","","","","",""
"audio-test","5","38701","0.0-4.0-1.0","","","","","","","","","","null","audio/turtle.mp3","","3","","","","","","","","","","","","",""
"audio-test","6","41091","0.0-4.0-2.0","","","","","","","","","","null","audio/shark.mp3","","2","","","","","","","","","","","","",""
"sailing-instructions","7","76119","0.0-5.0-0.0-0.0","","","","","","","","","","","","","","null","null","null","null","null","null","","","","","","",""
"sailing-trial","8","79568","0.0-5.0-0.0-1.0-0.0","","","","false","","","","","","","","","","2320.7999999999884","","null","","null","null","arrowleft","0","null","null","","",""
"sailing-trial","9","82305","0.0-5.0-0.0-1.0-1.0","","","","false","","","","","","","","","","1620.2000000000116","","null","","null","null","arrowright","1","null","null","","",""
"sailing-trial","10","85983","0.0-5.0-0.0-1.0-2.0","","","","false","","","","","","","","","","2577.2000000000116","","null","","null","null","arrowleft","0","null","null","","",""
"sailing-instructions","11","156260","0.0-5.0-0.0-2.0","","","","","","","","","","","","","","null","null","null","null","0","null","","","","","","",""
"sailing-trial","12","162826","0.0-5.0-0.0-3.0-0.0","","","","false","","","","","","","","","","null","","3115","","2","1","null","null","arrowleft","[1,1,1,1]","","",""
"sailing-trial","13","166748","0.0-5.0-0.0-3.0-1.0","","","","false","","","","","","","","","","null","","1063.0999999999767","","3","1","null","null","arrowright","[1,1,1,1]","","",""
"sailing-trial","14","170583","0.0-5.0-0.0-3.0-2.0","","","","false","","","","","","","","","","null","","1272.7999999999884","","3","0","null","null","arrowright","[0,0,0,0]","","",""
"sailing-instructions","15","179775","0.0-5.0-0.0-4.0","","","","","","","","","","","","","","null","null","null","null","null","null","","","","","","",""
"sailing-comprehension","16","196804","0.0-5.0-0.0-5.0","","","","","","","","","","11202.799999999988","","","","","","","","","","","","","","[""true"",""false"",""false"",""true""]","1",""
"sailing-instructions","17","225614","0.0-5.0-0.1-0.1","","","","","","","","","","","","","","null","null","null","null","null","null","","","","","","",""
"sailing-trial","18","228623","0.0-5.0-0.1-1.1-0.1","","","","false","","","","","","","","","","1901.7000000000698","","null","","null","null","arrowleft","0","null","null","","",""
"sailing-trial","19","230471","0.0-5.0-0.1-1.1-1.1","","","","false","","","","","","","","","","727.8000000000466","","null","","null","null","arrowright","1","null","null","","",""
"sailing-trial","20","232321","0.0-5.0-0.1-1.1-2.1","","","","false","","","","","","","","","","742.6999999999534","","null","","null","null","arrowright","1","null","null","","",""
"sailing-instructions","21","273964","0.0-5.0-0.1-2.1","","","","","","","","","","","","","","null","null","null","null","0","null","","","","","","",""
"sailing-trial","22","279862","0.0-5.0-0.1-3.1-0.1","","","","false","","","","","","","","","","null","","1983.4000000000233","","2","1","null","null","arrowleft","[1,1,1,1]","","",""
"sailing-trial","23","284307","0.0-5.0-0.1-3.1-1.1","","","","false","","","","","","","","","","null","","1754.0999999999767","","3","1","null","null","arrowright","[1,1,1,1]","","",""
"sailing-trial","24","288626","0.0-5.0-0.1-3.1-2.1","","","","false","","","","","","","","","","null","","1475.5","","2","0","null","null","arrowleft","[0,0,0,0]","","",""
"sailing-instructions","25","296757","0.0-5.0-0.1-4.1","","","","","","","","","","","","","","null","null","null","null","null","null","","","","","","",""
"sailing-comprehension","26","306534","0.0-5.0-0.1-5.1","","","","","","","","","","8092.800000000047","","","","","","","","","","","","","","[""true"",""true"",""false"",""true""]","0",""
"sailing-instructions","27","371131","0.0-6.0-0.0-0.0","","","","","","","","","","","","","","null","null","null","null","null","null","","","","","","",""
"sailing-comprehension","28","382916","0.0-6.0-0.0-1.0","","","","","","","","","","10434.900000000023","","","","","","","","","","","","","","[""true"",""false"",""true""]","0",""
"sailing-instructions","29","400985","0.0-7.0-0.0-0.0","","","","","","","","","","","","","","null","null","null","null","null","null","","","","","","",""
"sailing-trial","30","406123","0.0-7.0-0.0-1.0-0.0","","","","false","","","","","","","","","","null","","2388.1999999999534","","0","0","null","null","arrowup","[0.2,0.8,0.2,0.8]","","",""
"sailing-trial","31","411461","0.0-7.0-0.0-1.0-1.0","","","","false","","","","","","","","","","null","","2727.1999999999534","","1","1","null","null","arrowup","[0.2,0.8,0.2,0.8]","","",""
"sailing-trial","32","414891","0.0-7.0-0.0-1.0-2.0","","","","false","","","","","","","","","","null","","1118.9000000000233","","2","0","null","null","arrowup","[0.2,0.8,0.2,0.8]","","",""
"sailing-trial","33","418500","0.0-7.0-0.0-1.0-3.0","","","","false","","","","","","","","","","null","","1059.4000000000233","","3","1","null","null","arrowup","[0.2,0.8,0.2,0.8]","","",""
"sailing-comprehension","34","424127","0.0-7.0-0.0-2.0","","","","","","","","","","4648.79999999993","","","","","","","","","","","","","","[""false""]","0",""
"sailing-instructions","35","435793","0.0-8.0-0.0-0.0","","","","","","","","","","","","","","null","null","null","null","null","null","","","","","","",""
"sailing-comprehension","36","440062","0.0-8.0-0.0-1.0","","","","","","","","","","3048","","","","","","","","","","","","","","[""true""]","0",""
"sailing-instructions","37","471037","0.0-9.0-0.0-0.0","","","","","","","","","","","","","","null","null","null","null","null","null","","","","","","",""
"sailing-trial","38","477011","0.0-9.0-0.0-1.0-0.0","","","","false","","","","","","","","","","1306.4000000000233","","605.6999999999534","","3","0","arrowright","1","arrowright","[0.2,0.8,0.2,0.8]","","",""
"sailing-trial","39","481494","0.0-9.0-0.0-1.0-1.0","","","","false","","","","","","","","","","740.6999999999534","","238","","1","1","arrowleft","0","arrowright","[0.2,0.8,0.2,0.8]","","",""
"sailing-trial","40","484200","0.0-9.0-0.0-1.0-2.0","","","","false","","","","","","","","","","null","","1177","","0","0","null","null","arrowup","[0.2,0.8,0.2,0.8]","","",""
"sailing-trial","41","488328","0.0-9.0-0.0-1.0-3.0","","","","false","","","","","","","","","","611","","396.30000000004657","","1","1","arrowleft","0","arrowright","[0.2,0.8,0.2,0.8]","","",""
"sailing-trial","42","491796","0.0-9.0-0.0-1.0-4.0","","","","false","","","","","","","","","","null","","798.0999999999767","","3","1","null","null","arrowup","[0.2,0.8,0.2,0.8]","","",""
"sailing-trial","43","495639","0.0-9.0-0.0-1.0-5.0","","","","false","","","","","","","","","","484.5999999999767","","397.5","","1","1","arrowleft","0","arrowright","[0.2,0.8,0.2,0.8]","","",""
"sailing-instructions","44","525296","0.0-10.0","","","","","","","","","","","","","","null","null","null","null","null","null","","","","","","",""
"sailing-trial","45","529925","0.0-11.0-0.0","","","","false","","","","","","","","","","925.9000000000233","","333.80000000004657","","1","0","arrowleft","0","arrowright","[0.675,0.325,0.85,0.15]","","",""
"sailing-trial","46","533682","0.0-11.0-1.0","","","","false","","","","","","","","","","null","","1200.6999999999534","","3","0","null","null","arrowup","[0.675,0.325,0.85,0.15]","","",""
"sailing-trial","47","537408","0.0-11.0-2.0","","","","false","","","","","","","","","","603.9000000000233","","364.79999999993015","","0","1","arrowleft","0","arrowleft","[0.675,0.325,0.85,0.15]","","",""
"sailing-trial","48","539915","0.0-11.0-3.0","","","","false","","","","","","","","","","null","","903.0999999999767","","2","0","null","null","arrowup","[0.675,0.325,0.85,0.15]","","",""
"sailing-trial","49","544070","0.0-11.0-4.0","","","","false","","","","","","","","","","482.60000000009313","","1299.4000000000233","","0","0","arrowleft","0","arrowleft","[0.675,0.325,0.85,0.15]","","",""
"sailing-trial","50","547480","0.0-11.0-5.0","","","","false","","","","","","","","","","null","","1112.3999999999069","","3","0","null","null","arrowup","[0.675,0.325,0.85,0.15]","","",""
"sailing-trial","51","551826","0.0-11.0-6.0","","","","false","","","","","","","","","","1141.5","","27.900000000023283","","0","1","arrowleft","0","arrowleft","[0.675,0.325,0.85,0.15]","","",""
"sailing-trial","52","555546","0.0-11.0-7.0","","","","false","","","","","","","","","","null","","1474.9000000000233","","0","1","null","null","arrowup","[0.675,0.325,0.85,0.15]","","",""
"sailing-trial","53","559536","0.0-11.0-8.0","","","","false","","","","","","","","","","704.8000000000466","","108.19999999995343","","0","1","arrowleft","0","arrowleft","[0.675,0.325,0.85,0.15]","","",""
"sailing-trial","54","563411","0.0-11.0-9.0","","","","false","","","","","","","","","","null","","921.1000000000931","","3","0","null","null","arrowup","[0.675,0.325,0.85,0.15]","","",""
"sailing-trial","55","566916","0.0-11.0-10.0","","","","false","","","","","","","","","","587.9000000000233","","138.20000000006985","","0","1","arrowleft","0","arrowleft","[0.675,0.325,0.85,0.15]","","",""
"sailing-trial","56","569161","0.0-11.0-11.0","","","","false","","","","","","","","","","null","","899.8000000000466","","2","0","null","null","arrowup","[0.675,0.325,0.85,0.15]","","",""
"sailing-trial","57","573094","0.0-11.0-12.0","","","","false","","","","","","","","","","522.2000000000698","","1175.5","","0","0","arrowleft","0","arrowleft","[0.675,0.325,0.85,0.15]","","",""
"sailing-trial","58","577127","0.0-11.0-13.0","","","","false","","","","","","","","","","null","","1013.6999999999534","","1","0","null","null","arrowup","[0.675,0.325,0.85,0.15]","","",""
"sailing-trial","59","580754","0.0-11.0-14.0","","","","false","","","","","","","","","","528.3000000000466","","40.79999999993015","","0","1","arrowleft","0","arrowleft","[0.675,0.325,0.85,0.15]","","",""
"sailing-trial","60","582798","0.0-11.0-15.0","","","","false","","","","","","","","","","null","","683.4000000000233","","3","0","null","null","arrowup","[0.675,0.325,0.85,0.15]","","",""
"sailing-trial","61","586523","0.0-11.0-16.0","","","","false","","","","","","","","","","529.8999999999069","","141.90000000002328","","0","1","arrowleft","0","arrowleft","[0.675,0.325,0.85,0.15]","","",""
"sailing-trial","62","589600","0.0-11.0-17.0","","","","false","","","","","","","","","","null","","1077.3999999999069","","0","1","null","null","arrowup","[0.675,0.325,0.85,0.15]","","",""
"sailing-trial","63","592612","0.0-11.0-18.0","","","","false","","","","","","","","","","584.5999999999767","","125.79999999993015","","0","0","arrowleft","0","arrowleft","[0.15,0.85,0.325,0.675]","","",""
"sailing-trial","64","595488","0.0-11.0-19.0","","","","false","","","","","","","","","","null","","908","","1","1","null","null","arrowup","[0.15,0.85,0.325,0.675]","","",""
"sailing-trial","65","598173","0.0-11.0-20.0","","","","false","","","","","","","","","","456.29999999993015","","3","","0","0","arrowleft","0","arrowleft","[0.15,0.85,0.325,0.675]","","",""
"sailing-trial","66","601087","0.0-11.0-21.0","","","","false","","","","","","","","","","null","","1035.0999999999767","","1","1","null","null","arrowup","[0.15,0.85,0.325,0.675]","","",""
"sailing-trial","67","604707","0.0-11.0-22.0","","","","false","","","","","","","","","","559.4000000000233","","452.5999999999767","","1","1","arrowleft","0","arrowright","[0.15,0.85,0.325,0.675]","","",""
"sailing-trial","68","608467","0.0-11.0-23.0","","","","false","","","","","","","","","","null","","987.6999999999534","","1","1","null","null","arrowup","[0.15,0.85,0.325,0.675]","","",""
"sailing-trial","69","613339","0.0-11.0-24.0","","","","false","","","","","","","","","","1329.1999999999534","","633.1999999999534","","1","0","arrowleft","0","arrowright","[0.15,0.85,0.325,0.675]","","",""
"sailing-trial","70","617032","0.0-11.0-25.0","","","","false","","","","","","","","","","null","","947.1999999999534","","1","1","null","null","arrowup","[0.15,0.85,0.325,0.675]","","",""
"sailing-trial","71","621246","0.0-11.0-26.0","","","","false","","","","","","","","","","675.6999999999534","","542.5","","1","1","arrowleft","0","arrowright","[0.15,0.85,0.325,0.675]","","",""
"sailing-trial","72","624190","0.0-11.0-27.0","","","","false","","","","","","","","","","null","","1079.8000000000466","","2","0","null","null","arrowup","[0.15,0.85,0.325,0.675]","","",""
"sailing-trial","73","628425","0.0-11.0-28.0","","","","false","","","","","","","","","","823.8999999999069","","421.0999999999767","","1","1","arrowleft","0","arrowright","[0.15,0.85,0.325,0.675]","","",""
"sailing-trial","74","631386","0.0-11.0-29.0","","","","false","","","","","","","","","","null","","912.5","","0","1","null","null","arrowup","[0.15,0.85,0.325,0.675]","","",""
"sailing-trial","75","635135","0.0-11.0-30.0","","","","false","","","","","","","","","","656.5999999999767","","31.20000000006985","","1","1","arrowleft","0","arrowright","[0.15,0.85,0.325,0.675]","","",""
"sailing-trial","76","637909","0.0-11.0-31.0","","","","false","","","","","","","","","","null","","1040.9000000000233","","1","0","null","null","arrowup","[0.15,0.85,0.325,0.675]","","",""
"sailing-trial","77","641390","0.0-11.0-32.0","","","","false","","","","","","","","","","699.6999999999534","","68","","1","1","arrowleft","0","arrowright","[0.15,0.85,0.325,0.675]","","",""
"sailing-trial","78","644521","0.0-11.0-33.0","","","","false","","","","","","","","","","null","","1250.2000000000698","","2","1","null","null","arrowup","[0.15,0.85,0.325,0.675]","","",""
"sailing-trial","79","649462","0.0-11.0-34.0","","","","false","","","","","","","","","","627.1000000000931","","845.5999999999767","","1","1","arrowleft","0","arrowright","[0.15,0.85,0.325,0.675]","","",""
"sailing-trial","80","652939","0.0-11.0-35.0","","","","false","","","","","","","","","","null","","1211.2999999999302","","1","1","null","null","arrowup","[0.15,0.85,0.325,0.675]","","",""
"sailing-trial","81","655856","0.0-11.0-36.0","","","","false","","","","","","","","","","615.1000000000931","","72.90000000002328","","1","0","arrowleft","0","arrowright","[0.325,0.675,0.15,0.85]","","",""
"sailing-trial","82","658730","0.0-11.0-37.0","","","","false","","","","","","","","","","null","","906.8000000000466","","1","1","null","null","arrowup","[0.325,0.675,0.15,0.85]","","",""
"sailing-trial","83","662391","0.0-11.0-38.0","","","","false","","","","","","","","","","491.29999999993015","","466.19999999995343","","1","1","arrowleft","0","arrowright","[0.325,0.675,0.15,0.85]","","",""
"sailing-trial","84","664843","0.0-11.0-39.0","","","","false","","","","","","","","","","null","","1010.8999999999069","","2","0","null","null","arrowup","[0.325,0.675,0.15,0.85]","","",""
"sailing-trial","85","668200","0.0-11.0-40.0","","","","false","","","","","","","","","","588.9000000000233","","14.5","","1","1","arrowleft","0","arrowright","[0.325,0.675,0.15,0.85]","","",""
"sailing-trial","86","672986","0.0-11.0-41.0","","","","false","","","","","","","","","","null","","1048.9000000000233","","3","1","null","null","arrowup","[0.325,0.675,0.15,0.85]","","",""
"sailing-trial","87","676492","0.0-11.0-42.0","","","","false","","","","","","","","","","689.8000000000466","","69.69999999995343","","3","1","arrowright","1","arrowright","[0.325,0.675,0.15,0.85]","","",""
"sailing-trial","88","679364","0.0-11.0-43.0","","","","false","","","","","","","","","","null","","846.1999999999534","","2","0","null","null","arrowup","[0.325,0.675,0.15,0.85]","","",""
"sailing-trial","89","683414","0.0-11.0-44.0","","","","false","","","","","","","","","","557.0999999999767","","799.2000000000698","","3","1","arrowright","1","arrowright","[0.325,0.675,0.15,0.85]","","",""
"sailing-trial","90","686899","0.0-11.0-45.0","","","","false","","","","","","","","","","null","","1193.0999999999767","","3","1","null","null","arrowup","[0.325,0.675,0.15,0.85]","","",""
"sailing-trial","91","690822","0.0-11.0-46.0","","","","false","","","","","","","","","","573","","186.19999999995343","","3","1","arrowright","1","arrowright","[0.325,0.675,0.15,0.85]","","",""
"sailing-trial","92","693200","0.0-11.0-47.0","","","","false","","","","","","","","","","null","","885.1999999999534","","2","0","null","null","arrowup","[0.325,0.675,0.15,0.85]","","",""
"sailing-trial","93","696021","0.0-11.0-48.0","","","","false","","","","","","","","","","568.6000000000931","","8","","0","0","arrowleft","0","arrowleft","[0.325,0.675,0.15,0.85]","","",""
"sailing-trial","94","698924","0.0-11.0-49.0","","","","false","","","","","","","","","","null","","916.2000000000698","","3","1","null","null","arrowup","[0.325,0.675,0.15,0.85]","","",""
"sailing-trial","95","703006","0.0-11.0-50.0","","","","false","","","","","","","","","","513.4000000000233","","779.0999999999767","","3","1","arrowright","1","arrowright","[0.325,0.675,0.15,0.85]","","",""
"sailing-trial","96","706034","0.0-11.0-51.0","","","","false","","","","","","","","","","null","","1181.5999999999767","","3","1","null","null","arrowup","[0.325,0.675,0.15,0.85]","","",""
"sailing-trial","97","710049","0.0-11.0-52.0","","","","false","","","","","","","","","","662.5999999999767","","413.5","","3","1","arrowright","1","arrowright","[0.325,0.675,0.15,0.85]","","",""
"sailing-trial","98","713283","0.0-11.0-53.0","","","","false","","","","","","","","","","null","","1001.6000000000931","","3","1","null","null","arrowup","[0.325,0.675,0.15,0.85]","","",""
"sailing-trial","99","717360","0.0-11.0-54.0","","","","false","","","","","","","","","","763.5999999999767","","61.70000000006985","","3","1","arrowright","1","arrowright","[0.15,0.85,0.325,0.675]","","",""
"sailing-trial","100","720214","0.0-11.0-55.0","","","","false","","","","","","","","","","null","","952.5","","0","1","null","null","arrowup","[0.15,0.85,0.325,0.675]","","",""
"sailing-trial","101","724010","0.0-11.0-56.0","","","","false","","","","","","","","","","452","","531.5999999999767","","3","1","arrowright","1","arrowright","[0.15,0.85,0.325,0.675]","","",""
"sailing-trial","102","727463","0.0-11.0-57.0","","","","false","","","","","","","","","","null","","1254","","3","1","null","null","arrowup","[0.15,0.85,0.325,0.675]","","",""
"sailing-trial","103","730794","0.0-11.0-58.0","","","","false","","","","","","","","","","616","","45.5","","3","1","arrowright","1","arrowright","[0.15,0.85,0.325,0.675]","","",""
"sailing-trial","104","733455","0.0-11.0-59.0","","","","false","","","","","","","","","","null","","1007.9000000000233","","2","0","null","null","arrowup","[0.15,0.85,0.325,0.675]","","",""
"sailing-trial","105","738193","0.0-11.0-60.0","","","","false","","","","","","","","","","865.3999999999069","","515","","3","1","arrowright","1","arrowright","[0.15,0.85,0.325,0.675]","","",""
"sailing-trial","106","741530","0.0-11.0-61.0","","","","false","","","","","","","","","","null","","898.9000000000233","","3","1","null","null","arrowup","[0.15,0.85,0.325,0.675]","","",""
"sailing-trial","107","745326","0.0-11.0-62.0","","","","false","","","","","","","","","","536.1000000000931","","468.10000000009313","","3","0","arrowright","1","arrowright","[0.15,0.85,0.325,0.675]","","",""
"sailing-trial","108","747893","0.0-11.0-63.0","","","","false","","","","","","","","","","null","","905","","2","0","null","null","arrowup","[0.15,0.85,0.325,0.675]","","",""
"sailing-trial","109","751136","0.0-11.0-64.0","","","","false","","","","","","","","","","410.20000000018626","","681.6000000000931","","3","0","arrowright","1","arrowright","[0.15,0.85,0.325,0.675]","","",""
"sailing-trial","110","754938","0.0-11.0-65.0","","","","false","","","","","","","","","","null","","1744.8000000000466","","0","0","null","null","arrowup","[0.15,0.85,0.325,0.675]","","",""
"sailing-trial","111","759854","0.0-11.0-66.0","","","","false","","","","","","","","","","1837.1000000000931","","54.5","","2","1","arrowright","1","arrowleft","[0.15,0.85,0.325,0.675]","","",""
"sailing-trial","112","763474","0.0-11.0-67.0","","","","false","","","","","","","","","","null","","1280.1000000000931","","1","1","null","null","arrowup","[0.15,0.85,0.325,0.675]","","",""
"sailing-trial","113","767079","0.0-11.0-68.0","","","","false","","","","","","","","","","625.8999999999069","","539.8000000000466","","2","0","arrowright","1","arrowleft","[0.15,0.85,0.325,0.675]","","",""
"sailing-trial","114","769775","0.0-11.0-69.0","","","","false","","","","","","","","","","null","","1010.3999999999069","","2","0","null","null","arrowup","[0.15,0.85,0.325,0.675]","","",""
"sailing-trial","115","773797","0.0-11.0-70.0","","","","false","","","","","","","","","","538.4000000001397","","484.5","","3","1","arrowright","1","arrowright","[0.325,0.675,0.15,0.85]","","",""
"sailing-trial","116","776728","0.0-11.0-71.0","","","","false","","","","","","","","","","null","","908.3000000000466","","3","1","null","null","arrowup","[0.325,0.675,0.15,0.85]","","",""
"sailing-trial","117","780990","0.0-11.0-72.0","","","","false","","","","","","","","","","406.89999999990687","","1137.3999999999069","","3","1","arrowright","1","arrowright","[0.325,0.675,0.15,0.85]","","",""
"sailing-trial","118","783799","0.0-11.0-73.0","","","","false","","","","","","","","","","null","","1017.3000000000466","","2","0","null","null","arrowup","[0.325,0.675,0.15,0.85]","","",""
"sailing-trial","119","788127","0.0-11.0-74.0","","","","false","","","","","","","","","","569.8999999999069","","833.5","","3","1","arrowright","1","arrowright","[0.325,0.675,0.15,0.85]","","",""
"sailing-trial","120","791309","0.0-11.0-75.0","","","","false","","","","","","","","","","null","","1165.6999999999534","","1","1","null","null","arrowup","[0.325,0.675,0.15,0.85]","","",""
"sailing-trial","121","794942","0.0-11.0-76.0","","","","false","","","","","","","","","","642.3000000000466","","128.60000000009313","","3","1","arrowright","1","arrowright","[0.325,0.675,0.15,0.85]","","",""
"sailing-trial","122","798108","0.0-11.0-77.0","","","","false","","","","","","","","","","null","","987.4000000001397","","1","1","null","null","arrowup","[0.325,0.675,0.15,0.85]","","",""
"sailing-trial","123","801847","0.0-11.0-78.0","","","","false","","","","","","","","","","712.5","","53.700000000186265","","3","1","arrowright","1","arrowright","[0.325,0.675,0.15,0.85]","","",""
"sailing-trial","124","805702","0.0-11.0-79.0","","","","false","","","","","","","","","","null","","980.8000000000466","","2","1","null","null","arrowup","[0.325,0.675,0.15,0.85]","","",""
"sailing-trial","125","809034","0.0-11.0-80.0","","","","false","","","","","","","","","","544.3000000000466","","153.89999999990687","","3","1","arrowright","1","arrowright","[0.325,0.675,0.15,0.85]","","",""
"sailing-trial","126","811628","0.0-11.0-81.0","","","","false","","","","","","","","","","null","","1142.3999999999069","","0","0","null","null","arrowup","[0.325,0.675,0.15,0.85]","","",""
"sailing-trial","127","816536","0.0-11.0-82.0","","","","false","","","","","","","","","","625.4000000001397","","1039.2000000001863","","3","1","arrowright","1","arrowright","[0.325,0.675,0.15,0.85]","","",""
"sailing-trial","128","819773","0.0-11.0-83.0","","","","false","","","","","","","","","","null","","1104.5999999998603","","3","1","null","null","arrowup","[0.325,0.675,0.15,0.85]","","",""
"sailing-trial","129","824148","0.0-11.0-84.0","","","","false","","","","","","","","","","739.8000000000466","","474.4000000001397","","3","1","arrowright","1","arrowright","[0.325,0.675,0.15,0.85]","","",""
"sailing-trial","130","828288","0.0-11.0-85.0","","","","false","","","","","","","","","","null","","1087.3000000000466","","1","1","null","null","arrowup","[0.325,0.675,0.15,0.85]","","",""
"sailing-trial","131","831838","0.0-11.0-86.0","","","","false","","","","","","","","","","644.8999999999069","","633.6000000000931","","3","0","arrowright","1","arrowright","[0.325,0.675,0.15,0.85]","","",""
"sailing-trial","132","834642","0.0-11.0-87.0","","","","false","","","","","","","","","","null","","911","","0","1","null","null","arrowup","[0.325,0.675,0.15,0.85]","","",""
"sailing-trial","133","838403","0.0-11.0-88.0","","","","false","","","","","","","","","","463.10000000009313","","197.10000000009313","","3","1","arrowright","1","arrowright","[0.325,0.675,0.15,0.85]","","",""
"sailing-trial","134","840726","0.0-11.0-89.0","","","","false","","","","","","","","","","null","","922.6000000000931","","2","0","null","null","arrowup","[0.325,0.675,0.15,0.85]","","",""
"sailing-trial","135","844255","0.0-11.0-90.0","","","","false","","","","","","","","","","415.30000000004657","","378.5","","3","1","arrowright","1","arrowright","[0.15,0.85,0.325,0.675]","","",""
"sailing-trial","136","846704","0.0-11.0-91.0","","","","false","","","","","","","","","","null","","1121","","3","0","null","null","arrowup","[0.15,0.85,0.325,0.675]","","",""
"sailing-trial","137","850693","0.0-11.0-92.0","","","","false","","","","","","","","","","452.70000000018626","","236.10000000009313","","3","0","arrowright","1","arrowright","[0.15,0.85,0.325,0.675]","","",""
"sailing-trial","138","854361","0.0-11.0-93.0","","","","false","","","","","","","","","","null","","922.0999999998603","","2","0","null","null","arrowup","[0.15,0.85,0.325,0.675]","","",""
"sailing-trial","139","858131","0.0-11.0-94.0","","","","false","","","","","","","","","","468.30000000004657","","132.60000000009313","","3","1","arrowright","1","arrowright","[0.15,0.85,0.325,0.675]","","",""
"sailing-trial","140","861379","0.0-11.0-95.0","","","","false","","","","","","","","","","null","","1064.8999999999069","","1","1","null","null","arrowup","[0.15,0.85,0.325,0.675]","","",""
"sailing-trial","141","865484","0.0-11.0-96.0","","","","false","","","","","","","","","","316.9000000001397","","627.6000000000931","","3","1","arrowright","1","arrowright","[0.15,0.85,0.325,0.675]","","",""
"sailing-trial","142","869139","0.0-11.0-97.0","","","","false","","","","","","","","","","null","","1199.6000000000931","","0","1","null","null","arrowup","[0.15,0.85,0.325,0.675]","","",""
"sailing-trial","143","872386","0.0-11.0-98.0","","","","false","","","","","","","","","","563.1999999999534","","57.39999999990687","","3","1","arrowright","1","arrowright","[0.15,0.85,0.325,0.675]","","",""
"sailing-trial","144","875149","0.0-11.0-99.0","","","","false","","","","","","","","","","null","","949.8999999999069","","3","1","null","null","arrowup","[0.15,0.85,0.325,0.675]","","",""
"sailing-trial","145","878005","0.0-11.0-100.0","","","","false","","","","","","","","","","6.899999999906868","","333.19999999995343","","3","0","arrowright","1","arrowright","[0.15,0.85,0.325,0.675]","","",""
"sailing-trial","146","880718","0.0-11.0-101.0","","","","false","","","","","","","","","","null","","1239.5","","2","0","null","null","arrowup","[0.15,0.85,0.325,0.675]","","",""
"sailing-trial","147","883371","0.0-11.0-102.0","","","","false","","","","","","","","","","452","","27.4000000001397","","3","0","arrowright","1","arrowright","[0.15,0.85,0.325,0.675]","","",""
"sailing-trial","148","888007","0.0-11.0-103.0","","","","false","","","","","","","","","","null","","3289.899999999907","","2","0","null","null","arrowup","[0.15,0.85,0.325,0.675]","","",""
"sailing-trial","149","891237","0.0-11.0-104.0","","","","false","","","","","","","","","","505","","20.799999999813735","","3","1","arrowright","1","arrowright","[0.15,0.85,0.325,0.675]","","",""
"sailing-trial","150","894261","0.0-11.0-105.0","","","","false","","","","","","","","","","null","","1029.0999999998603","","0","0","null","null","arrowup","[0.15,0.85,0.325,0.675]","","",""
"sailing-trial","151","896802","0.0-11.0-106.0","","","","false","","","","","","","","","","394","","96.0999999998603","","3","0","arrowright","1","arrowright","[0.15,0.85,0.325,0.675]","","",""
"sailing-trial","152","900465","0.0-11.0-107.0","","","","false","","","","","","","","","","null","","948.0999999998603","","1","1","null","null","arrowup","[0.15,0.85,0.325,0.675]","","",""
"sailing-trial","153","904126","0.0-11.0-108.0","","","","false","","","","","","","","","","561.0999999998603","","379.0999999998603","","1","1","arrowleft","0","arrowright","[0.15,0.85,0.325,0.675]","","",""
"sailing-trial","154","907718","0.0-11.0-109.0","","","","false","","","","","","","","","","null","","1487.3000000000466","","3","1","null","null","arrowup","[0.15,0.85,0.325,0.675]","","",""
"sailing-trial","155","911422","0.0-11.0-110.0","","","","false","","","","","","","","","","630","","388.20000000018626","","1","1","arrowleft","0","arrowright","[0.15,0.85,0.325,0.675]","","",""
"sailing-trial","156","914528","0.0-11.0-111.0","","","","false","","","","","","","","","","null","","1054.6000000000931","","2","1","null","null","arrowup","[0.15,0.85,0.325,0.675]","","",""
"sailing-trial","157","918479","0.0-11.0-112.0","","","","false","","","","","","","","","","921.1999999999534","","300","","1","1","arrowleft","0","arrowright","[0.325,0.675,0.15,0.85]","","",""
"sailing-trial","158","921856","0.0-11.0-113.0","","","","false","","","","","","","","","","null","","1324","","3","1","null","null","arrowup","[0.325,0.675,0.15,0.85]","","",""
"sailing-trial","159","925832","0.0-11.0-114.0","","","","false","","","","","","","","","","594.3000000000466","","147","","1","1","arrowleft","0","arrowright","[0.325,0.675,0.15,0.85]","","",""
"sailing-trial","160","928634","0.0-11.0-115.0","","","","false","","","","","","","","","","null","","1181.6999999999534","","0","0","null","null","arrowup","[0.325,0.675,0.15,0.85]","","",""
"sailing-trial","161","932579","0.0-11.0-116.0","","","","false","","","","","","","","","","715.9000000001397","","467.80000000004657","","1","0","arrowleft","0","arrowright","[0.325,0.675,0.15,0.85]","","",""
"sailing-trial","162","936582","0.0-11.0-117.0","","","","false","","","","","","","","","","null","","1891.3999999999069","","0","1","null","null","arrowup","[0.325,0.675,0.15,0.85]","","",""
"sailing-trial","163","940619","0.0-11.0-118.0","","","","false","","","","","","","","","","589.1999999999534","","152.5999999998603","","1","1","arrowleft","0","arrowright","[0.325,0.675,0.15,0.85]","","",""
"sailing-trial","164","944292","0.0-11.0-119.0","","","","false","","","","","","","","","","null","","1015.8999999999069","","2","0","null","null","arrowup","[0.325,0.675,0.15,0.85]","","",""
"sailing-trial","165","948597","0.0-11.0-120.0","","","","false","","","","","","","","","","974.1999999999534","","249.80000000004657","","1","1","arrowleft","0","arrowright","[0.325,0.675,0.15,0.85]","","",""
"sailing-trial","166","951355","0.0-11.0-121.0","","","","false","","","","","","","","","","null","","1120.5","","3","0","null","null","arrowup","[0.325,0.675,0.15,0.85]","","",""
"sailing-trial","167","955166","0.0-11.0-122.0","","","","false","","","","","","","","","","787","","108","","1","1","arrowleft","0","arrowright","[0.325,0.675,0.15,0.85]","","",""
"sailing-trial","168","958090","0.0-11.0-123.0","","","","false","","","","","","","","","","null","","1505.5","","2","0","null","null","arrowup","[0.325,0.675,0.15,0.85]","","",""
"sailing-trial","169","961984","0.0-11.0-124.0","","","","false","","","","","","","","","","997.1000000000931","","488.39999999990687","","1","0","arrowleft","0","arrowright","[0.325,0.675,0.15,0.85]","","",""
"sailing-trial","170","966428","0.0-11.0-125.0","","","","false","","","","","","","","","","null","","3376.7000000001863","","2","0","null","null","arrowup","[0.325,0.675,0.15,0.85]","","",""
"sailing-trial","171","969714","0.0-11.0-126.0","","","","false","","","","","","","","","","600.3999999999069","","395.80000000004657","","1","0","arrowleft","0","arrowright","[0.325,0.675,0.15,0.85]","","",""
"sailing-trial","172","972671","0.0-11.0-127.0","","","","false","","","","","","","","","","null","","1284","","1","0","null","null","arrowup","[0.325,0.675,0.15,0.85]","","",""
"sailing-trial","173","976451","0.0-11.0-128.0","","","","false","","","","","","","","","","977","","383.5999999998603","","0","0","arrowleft","0","arrowleft","[0.325,0.675,0.15,0.85]","","",""
"sailing-trial","174","980474","0.0-11.0-129.0","","","","false","","","","","","","","","","null","","1024.0999999998603","","2","0","null","null","arrowup","[0.325,0.675,0.15,0.85]","","",""
"sailing-trial","175","984413","0.0-11.0-130.0","","","","false","","","","","","","","","","763.3999999999069","","490.5999999998603","","0","0","arrowleft","0","arrowleft","[0.15,0.85,0.325,0.675]","","",""
"sailing-trial","176","987405","0.0-11.0-131.0","","","","false","","","","","","","","","","null","","997","","3","1","null","null","arrowup","[0.15,0.85,0.325,0.675]","","",""
"sailing-trial","177","990541","0.0-11.0-132.0","","","","false","","","","","","","","","","559","","31.4000000001397","","3","0","arrowright","1","arrowright","[0.15,0.85,0.325,0.675]","","",""
"sailing-trial","178","994084","0.0-11.0-133.0","","","","false","","","","","","","","","","null","","1017.5","","3","1","null","null","arrowup","[0.15,0.85,0.325,0.675]","","",""
"sailing-trial","179","997571","0.0-11.0-134.0","","","","false","","","","","","","","","","545.0999999998603","","25.799999999813735","","3","1","arrowright","1","arrowright","[0.15,0.85,0.325,0.675]","","",""
"sailing-trial","180","1001856","0.0-11.0-135.0","","","","false","","","","","","","","","","null","","2267.1999999999534","","1","1","null","null","arrowup","[0.15,0.85,0.325,0.675]","","",""
"sailing-trial","181","1005098","0.0-11.0-136.0","","","","false","","","","","","","","","","495.10000000009313","","149.79999999981374","","3","0","arrowright","1","arrowright","[0.15,0.85,0.325,0.675]","","",""
"sailing-trial","182","1008340","0.0-11.0-137.0","","","","false","","","","","","","","","","null","","1212.5","","3","1","null","null","arrowup","[0.15,0.85,0.325,0.675]","","",""
"sailing-trial","183","1011474","0.0-11.0-138.0","","","","false","","","","","","","","","","533.1000000000931","","42","","3","0","arrowright","1","arrowright","[0.15,0.85,0.325,0.675]","","",""
"sailing-trial","184","1014530","0.0-11.0-139.0","","","","false","","","","","","","","","","null","","958.8999999999069","","3","1","null","null","arrowup","[0.15,0.85,0.325,0.675]","","",""
"sailing-trial","185","1018711","0.0-11.0-140.0","","","","false","","","","","","","","","","443","","473.30000000004657","","3","1","arrowright","1","arrowright","[0.15,0.85,0.325,0.675]","","",""
"sailing-trial","186","1023179","0.0-11.0-141.0","","","","false","","","","","","","","","","null","","2623.6999999999534","","1","1","null","null","arrowup","[0.15,0.85,0.325,0.675]","","",""
"sailing-trial","187","1026943","0.0-11.0-142.0","","","","false","","","","","","","","","","296.69999999995343","","471.10000000009313","","3","1","arrowright","1","arrowright","[0.15,0.85,0.325,0.675]","","",""
"sailing-trial","188","1030024","0.0-11.0-143.0","","","","false","","","","","","","","","","null","","1034.7000000001863","","3","1","null","null","arrowup","[0.15,0.85,0.325,0.675]","","",""
"sailing-trial","189","1033373","0.0-11.0-144.0","","","","false","","","","","","","","","","620.1999999999534","","114.4000000001397","","3","0","arrowright","1","arrowright","[0.15,0.85,0.325,0.675]","","",""
"sailing-trial","190","1036677","0.0-11.0-145.0","","","","false","","","","","","","","","","null","","1519.7999999998137","","2","0","null","null","arrowup","[0.15,0.85,0.325,0.675]","","",""
"sailing-trial","191","1040835","0.0-11.0-146.0","","","","false","","","","","","","","","","509.19999999995343","","80.19999999995343","","3","0","arrowright","1","arrowright","[0.15,0.85,0.325,0.675]","","",""
"sailing-trial","192","1045614","0.0-11.0-147.0","","","","false","","","","","","","","","","null","","2983.8000000000466","","2","0","null","null","arrowup","[0.15,0.85,0.325,0.675]","","",""
"sailing-trial","193","1050982","0.0-11.0-148.0","","","","false","","","","","","","","","","1044.4999999998836","","650.5","","3","1","arrowright","1","arrowright","[0.15,0.85,0.325,0.675]","","",""
"sailing-trial","194","1053967","0.0-11.0-149.0","","","","false","","","","","","","","","","null","","1477","","0","0","null","null","arrowup","[0.15,0.85,0.325,0.675]","","",""
"sailing-trial","195","1058184","0.0-11.0-150.0","","","","false","","","","","","","","","","1234.5","","126.39999999990687","","3","0","arrowright","1","arrowright","[0.325,0.675,0.15,0.85]","","",""
"sailing-trial","196","1061992","0.0-11.0-151.0","","","","false","","","","","","","","","","null","","1303.3000000002794","","0","1","null","null","arrowup","[0.325,0.675,0.15,0.85]","","",""
"sailing-trial","197","1066270","0.0-11.0-152.0","","","","false","","","","","","","","","","485.20000000018626","","32.60000000009313","","3","0","arrowright","1","arrowright","[0.325,0.675,0.15,0.85]","","",""
"sailing-trial","198","1069975","0.0-11.0-153.0","","","","false","","","","","","","","","","null","","1716.5","","1","1","null","null","arrowup","[0.325,0.675,0.15,0.85]","","",""
"sailing-trial","199","1073983","0.0-11.0-154.0","","","","false","","","","","","","","","","968.7999999998137","","450.20000000018626","","2","0","arrowright","1","arrowleft","[0.325,0.675,0.15,0.85]","","",""
"sailing-trial","200","1077222","0.0-11.0-155.0","","","","false","","","","","","","","","","null","","1219.2999999998137","","2","0","null","null","arrowup","[0.325,0.675,0.15,0.85]","","",""
"sailing-trial","201","1081057","0.0-11.0-156.0","","","","false","","","","","","","","","","497.59999999962747","","430.39999999990687","","1","1","arrowleft","0","arrowright","[0.325,0.675,0.15,0.85]","","",""
"sailing-trial","202","1084006","0.0-11.0-157.0","","","","false","","","","","","","","","","null","","1076.2999999998137","","3","1","null","null","arrowup","[0.325,0.675,0.15,0.85]","","",""
"sailing-trial","203","1088802","0.0-11.0-158.0","","","","false","","","","","","","","","","835","","83.8000000002794","","1","1","arrowleft","0","arrowright","[0.325,0.675,0.15,0.85]","","",""
"sailing-trial","204","1092758","0.0-11.0-159.0","","","","false","","","","","","","","","","null","","1927.8999999999069","","0","1","null","null","arrowup","[0.325,0.675,0.15,0.85]","","",""
"sailing-trial","205","1097334","0.0-11.0-160.0","","","","false","","","","","","","","","","1283.5","","207.89999999990687","","1","1","arrowleft","0","arrowright","[0.325,0.675,0.15,0.85]","","",""
"sailing-trial","206","1100627","0.0-11.0-161.0","","","","false","","","","","","","","","","null","","2006","","0","0","null","null","arrowup","[0.325,0.675,0.15,0.85]","","",""
"sailing-trial","207","1105617","0.0-11.0-162.0","","","","false","","","","","","","","","","1259.8999999999069","","303.1999999997206","","1","1","arrowleft","0","arrowright","[0.325,0.675,0.15,0.85]","","",""
"sailing-trial","208","1108796","0.0-11.0-163.0","","","","false","","","","","","","","","","null","","1252.7999999998137","","2","0","null","null","arrowup","[0.325,0.675,0.15,0.85]","","",""
"sailing-trial","209","1114386","0.0-11.0-164.0","","","","false","","","","","","","","","","2951.6999999997206","","83.29999999981374","","1","0","arrowleft","0","arrowright","[0.325,0.675,0.15,0.85]","","",""
"sailing-trial","210","1117733","0.0-11.0-165.0","","","","false","","","","","","","","","","null","","1268.3999999999069","","1","1","null","null","arrowup","[0.325,0.675,0.15,0.85]","","",""
"sailing-trial","211","1121748","0.0-11.0-166.0","","","","false","","","","","","","","","","545","","70.3000000002794","","1","1","arrowleft","0","arrowright","[0.325,0.675,0.15,0.85]","","",""
"sailing-trial","212","1124408","0.0-11.0-167.0","","","","false","","","","","","","","","","null","","1113.5","","0","0","null","null","arrowup","[0.325,0.675,0.15,0.85]","","",""
"sailing-trial","213","1128223","0.0-11.0-168.0","","","","false","","","","","","","","","","588.8999999999069","","352.20000000018626","","1","1","arrowleft","0","arrowright","[0.325,0.675,0.15,0.85]","","",""
"sailing-trial","214","1130932","0.0-11.0-169.0","","","","false","","","","","","","","","","null","","1233.1000000000931","","1","0","null","null","arrowup","[0.325,0.675,0.15,0.85]","","",""
"sailing-trial","215","1134651","0.0-11.0-170.0","","","","false","","","","","","","","","","457.60000000009313","","217","","1","1","arrowleft","0","arrowright","[0.675,0.325,0.85,0.15]","","",""
"sailing-trial","216","1137156","0.0-11.0-171.0","","","","false","","","","","","","","","","null","","950.7000000001863","","1","0","null","null","arrowup","[0.675,0.325,0.85,0.15]","","",""
"sailing-trial","217","1141508","0.0-11.0-172.0","","","","false","","","","","","","","","","630.2000000001863","","706.7000000001863","","1","1","arrowleft","0","arrowright","[0.675,0.325,0.85,0.15]","","",""
"sailing-trial","218","1144416","0.0-11.0-173.0","","","","false","","","","","","","","","","null","","965.2000000001863","","0","1","null","null","arrowup","[0.675,0.325,0.85,0.15]","","",""
"sailing-trial","219","1147886","0.0-11.0-174.0","","","","false","","","","","","","","","","508.6999999997206","","407.3000000002794","","1","0","arrowleft","0","arrowright","[0.675,0.325,0.85,0.15]","","",""
"sailing-trial","220","1150745","0.0-11.0-175.0","","","","false","","","","","","","","","","null","","1043.3999999999069","","0","1","null","null","arrowup","[0.675,0.325,0.85,0.15]","","",""
"sailing-trial","221","1155384","0.0-11.0-176.0","","","","false","","","","","","","","","","1470.3999999999069","","634.1999999997206","","0","0","arrowleft","0","arrowleft","[0.675,0.325,0.85,0.15]","","",""
"sailing-trial","222","1157952","0.0-11.0-177.0","","","","false","","","","","","","","","","null","","1199.7999999998137","","3","0","null","null","arrowup","[0.675,0.325,0.85,0.15]","","",""
"sailing-trial","223","1161097","0.0-11.0-178.0","","","","false","","","","","","","","","","661.8999999999069","","66.1999999997206","","0","0","arrowleft","0","arrowleft","[0.675,0.325,0.85,0.15]","","",""
"sailing-trial","224","1163571","0.0-11.0-179.0","","","","false","","","","","","","","","","null","","1092.8999999999069","","2","0","null","null","arrowup","[0.675,0.325,0.85,0.15]","","",""
"sailing-trial","225","1167380","0.0-11.0-180.0","","","","false","","","","","","","","","","491.3000000002794","","410.59999999962747","","2","1","arrowright","1","arrowleft","[0.675,0.325,0.85,0.15]","","",""
"sailing-trial","226","1170098","0.0-11.0-181.0","","","","false","","","","","","","","","","null","","938.7999999998137","","3","1","null","null","arrowup","[0.675,0.325,0.85,0.15]","","",""
"sailing-trial","227","1173413","0.0-11.0-182.0","","","","false","","","","","","","","","","576.4000000003725","","387.1999999997206","","3","0","arrowright","1","arrowright","[0.675,0.325,0.85,0.15]","","",""
"sailing-trial","228","1175636","0.0-11.0-183.0","","","","false","","","","","","","","","","null","","871.7000000001863","","0","0","null","null","arrowup","[0.675,0.325,0.85,0.15]","","",""
"sailing-trial","229","1178146","0.0-11.0-184.0","","","","false","","","","","","","","","","346.29999999981374","","33.5","","3","0","arrowright","1","arrowright","[0.675,0.325,0.85,0.15]","","",""
"sailing-trial","230","1181451","0.0-11.0-185.0","","","","false","","","","","","","","","","null","","1583.6000000000931","","2","1","null","null","arrowup","[0.675,0.325,0.85,0.15]","","",""
"sailing-trial","231","1184971","0.0-11.0-186.0","","","","false","","","","","","","","","","554.3000000002794","","267.8000000002794","","2","1","arrowright","1","arrowleft","[0.675,0.325,0.85,0.15]","","",""
"sailing-trial","232","1187818","0.0-11.0-187.0","","","","false","","","","","","","","","","null","","1020.7000000001863","","1","1","null","null","arrowup","[0.675,0.325,0.85,0.15]","","",""
"sailing-trial","233","1191200","0.0-11.0-188.0","","","","false","","","","","","","","","","438.10000000009313","","577.6999999997206","","2","0","arrowright","1","arrowleft","[0.325,0.675,0.15,0.85]","","",""
"sailing-trial","234","1194038","0.0-11.0-189.0","","","","false","","","","","","","","","","null","","1011.7000000001863","","3","1","null","null","arrowup","[0.325,0.675,0.15,0.85]","","",""
"sailing-trial","235","1196992","0.0-11.0-190.0","","","","false","","","","","","","","","","401.5","","38.3000000002794","","2","0","arrowright","1","arrowleft","[0.325,0.675,0.15,0.85]","","",""
"sailing-trial","236","1199884","0.0-11.0-191.0","","","","false","","","","","","","","","","null","","963.5","","0","1","null","null","arrowup","[0.325,0.675,0.15,0.85]","","",""
"sailing-trial","237","1202933","0.0-11.0-192.0","","","","false","","","","","","","","","","463.89999999990687","","178.1999999997206","","3","0","arrowright","1","arrowright","[0.325,0.675,0.15,0.85]","","",""
"sailing-trial","238","1205471","0.0-11.0-193.0","","","","false","","","","","","","","","","null","","1165.8999999999069","","0","0","null","null","arrowup","[0.325,0.675,0.15,0.85]","","",""
"sailing-trial","239","1208916","0.0-11.0-194.0","","","","false","","","","","","","","","","604.3000000002794","","416.89999999990687","","1","0","arrowleft","0","arrowright","[0.325,0.675,0.15,0.85]","","",""
"sailing-trial","240","1211507","0.0-11.0-195.0","","","","false","","","","","","","","","","null","","816.5","","1","1","null","null","arrowup","[0.325,0.675,0.15,0.85]","","",""
"sailing-trial","241","1215081","0.0-11.0-196.0","","","","false","","","","","","","","","","776.4000000003725","","28.300000000279397","","1","1","arrowleft","0","arrowright","[0.325,0.675,0.15,0.85]","","",""
"sailing-trial","242","1217496","0.0-11.0-197.0","","","","false","","","","","","","","","","null","","1044.4000000003725","","1","0","null","null","arrowup","[0.325,0.675,0.15,0.85]","","",""
"sailing-trial","243","1220975","0.0-11.0-198.0","","","","false","","","","","","","","","","855.6999999997206","","176.20000000018626","","1","0","arrowleft","0","arrowright","[0.325,0.675,0.15,0.85]","","",""
"sailing-trial","244","1223606","0.0-11.0-199.0","","","","false","","","","","","","","","","null","","1262.1000000000931","","1","0","null","null","arrowup","[0.325,0.675,0.15,0.85]","","",""
"sailing-trial","245","1226913","0.0-11.0-200.0","","","","false","","","","","","","","","","454.70000000018626","","362.89999999990687","","0","0","arrowleft","0","arrowleft","[0.325,0.675,0.15,0.85]","","",""
"sailing-trial","246","1229331","0.0-11.0-201.0","","","","false","","","","","","","","","","null","","1067","","3","0","null","null","arrowup","[0.325,0.675,0.15,0.85]","","",""
"sailing-trial","247","1233408","0.0-11.0-202.0","","","","false","","","","","","","","","","610","","484.3000000002794","","0","1","arrowleft","0","arrowleft","[0.325,0.675,0.15,0.85]","","",""
"sailing-trial","248","1235665","0.0-11.0-203.0","","","","false","","","","","","","","","","null","","938.5","","2","0","null","null","arrowup","[0.325,0.675,0.15,0.85]","","",""
"sailing-trial","249","1239311","0.0-11.0-204.0","","","","false","","","","","","","","","","658.6000000000931","","280.79999999981374","","0","0","arrowleft","0","arrowleft","[0.15,0.85,0.325,0.675]","","",""
"sailing-trial","250","1242430","0.0-11.0-205.0","","","","false","","","","","","","","","","null","","1046.8000000002794","","3","1","null","null","arrowup","[0.15,0.85,0.325,0.675]","","",""
"sailing-trial","251","1246272","0.0-11.0-206.0","","","","false","","","","","","","","","","534.6999999997206","","74","","0","1","arrowleft","0","arrowleft","[0.15,0.85,0.325,0.675]","","",""
"sailing-trial","252","1248846","0.0-11.0-207.0","","","","false","","","","","","","","","","null","","1288.1000000000931","","0","0","null","null","arrowup","[0.15,0.85,0.325,0.675]","","",""
"sailing-trial","253","1253576","0.0-11.0-208.0","","","","false","","","","","","","","","","786.7000000001863","","223.89999999990687","","0","1","arrowleft","0","arrowleft","[0.15,0.85,0.325,0.675]","","",""
"sailing-trial","254","1256596","0.0-11.0-209.0","","","","false","","","","","","","","","","null","","1175.2000000001863","","3","1","null","null","arrowup","[0.15,0.85,0.325,0.675]","","",""
"sailing-trial","255","1260241","0.0-11.0-210.0","","","","false","","","","","","","","","","540.1000000000931","","147.1999999997206","","3","1","arrowright","1","arrowright","[0.15,0.85,0.325,0.675]","","",""
"sailing-trial","256","1263090","0.0-11.0-211.0","","","","false","","","","","","","","","","null","","999.5","","1","1","null","null","arrowup","[0.15,0.85,0.325,0.675]","","",""
"sailing-trial","257","1266308","0.0-11.0-212.0","","","","false","","","","","","","","","","497.39999999990687","","425.70000000018626","","3","0","arrowright","1","arrowright","[0.15,0.85,0.325,0.675]","","",""
"sailing-trial","258","1269051","0.0-11.0-213.0","","","","false","","","","","","","","","","null","","888.2000000001863","","3","1","null","null","arrowup","[0.15,0.85,0.325,0.675]","","",""
"sailing-trial","259","1274713","0.0-11.0-214.0","","","","false","","","","","","","","","","469.20000000018626","","1771.6999999997206","","3","1","arrowright","1","arrowright","[0.15,0.85,0.325,0.675]","","",""
"sailing-trial","260","1278085","0.0-11.0-215.0","","","","false","","","","","","","","","","null","","1847.5999999996275","","2","0","null","null","arrowup","[0.15,0.85,0.325,0.675]","","",""
"sailing-trial","261","1281608","0.0-11.0-216.0","","","","false","","","","","","","","","","497.10000000009313","","569.4000000003725","","3","0","arrowright","1","arrowright","[0.15,0.85,0.325,0.675]","","",""
"sailing-trial","262","1283807","0.0-11.0-217.0","","","","false","","","","","","","","","","null","","967.6000000000931","","0","0","null","null","arrowup","[0.15,0.85,0.325,0.675]","","",""
"sailing-trial","263","1287332","0.0-11.0-218.0","","","","false","","","","","","","","","","653.6999999997206","","17.5","","3","1","arrowright","1","arrowright","[0.15,0.85,0.325,0.675]","","",""
"sailing-trial","264","1289688","0.0-11.0-219.0","","","","false","","","","","","","","","","null","","991","","2","0","null","null","arrowup","[0.15,0.85,0.325,0.675]","","",""
"sailing-trial","265","1293763","0.0-11.0-220.0","","","","false","","","","","","","","","","645.5","","501.79999999981374","","3","1","arrowright","1","arrowright","[0.15,0.85,0.325,0.675]","","",""
"sailing-trial","266","1297021","0.0-11.0-221.0","","","","false","","","","","","","","","","null","","1288.5","","1","1","null","null","arrowup","[0.15,0.85,0.325,0.675]","","",""
"sailing-trial","267","1300632","0.0-11.0-222.0","","","","false","","","","","","","","","","684.7000000001863","","406.5","","3","0","arrowright","1","arrowright","[0.15,0.85,0.325,0.675]","","",""
"sailing-trial","268","1303958","0.0-11.0-223.0","","","","false","","","","","","","","","","null","","1903.3999999999069","","3","0","null","null","arrowup","[0.15,0.85,0.325,0.675]","","",""
"sailing-trial","269","1307669","0.0-11.0-224.0","","","","false","","","","","","","","","","574.3999999999069","","184.89999999990687","","3","1","arrowright","1","arrowright","[0.325,0.675,0.15,0.85]","","",""
"sailing-trial","270","1309981","0.0-11.0-225.0","","","","false","","","","","","","","","","null","","906.8000000002794","","0","0","null","null","arrowup","[0.325,0.675,0.15,0.85]","","",""
"sailing-trial","271","1313894","0.0-11.0-226.0","","","","false","","","","","","","","","","843.1000000000931","","146.39999999990687","","3","1","arrowright","1","arrowright","[0.325,0.675,0.15,0.85]","","",""
"sailing-trial","272","1316323","0.0-11.0-227.0","","","","false","","","","","","","","","","null","","1202.2000000001863","","0","0","null","null","arrowup","[0.325,0.675,0.15,0.85]","","",""
"sailing-trial","273","1320757","0.0-11.0-228.0","","","","false","","","","","","","","","","893.8999999999069","","519","","3","1","arrowright","1","arrowright","[0.325,0.675,0.15,0.85]","","",""
"sailing-trial","274","1324244","0.0-11.0-229.0","","","","false","","","","","","","","","","null","","1790.2999999998137","","1","0","null","null","arrowup","[0.325,0.675,0.15,0.85]","","",""
"sailing-trial","275","1327962","0.0-11.0-230.0","","","","false","","","","","","","","","","720.6000000000931","","101.3000000002794","","3","1","arrowright","1","arrowright","[0.325,0.675,0.15,0.85]","","",""
"sailing-trial","276","1330816","0.0-11.0-231.0","","","","false","","","","","","","","","","null","","963.2999999998137","","3","1","null","null","arrowup","[0.325,0.675,0.15,0.85]","","",""
"sailing-trial","277","1334488","0.0-11.0-232.0","","","","false","","","","","","","","","","498.6999999997206","","188.29999999981374","","3","1","arrowright","1","arrowright","[0.325,0.675,0.15,0.85]","","",""
"sailing-trial","278","1337438","0.0-11.0-233.0","","","","false","","","","","","","","","","null","","1351.6000000000931","","0","0","null","null","arrowup","[0.325,0.675,0.15,0.85]","","",""
"sailing-trial","279","1341167","0.0-11.0-234.0","","","","false","","","","","","","","","","637.7000000001863","","42.5","","3","1","arrowright","1","arrowright","[0.325,0.675,0.15,0.85]","","",""
"sailing-trial","280","1344719","0.0-11.0-235.0","","","","false","","","","","","","","","","null","","2308.600000000093","","2","0","null","null","arrowup","[0.325,0.675,0.15,0.85]","","",""
"sailing-trial","281","1348209","0.0-11.0-236.0","","","","false","","","","","","","","","","621.7000000001863","","42.6999999997206","","3","1","arrowright","1","arrowright","[0.325,0.675,0.15,0.85]","","",""
"sailing-trial","282","1353602","0.0-11.0-237.0","","","","false","","","","","","","","","","null","","4202.899999999907","","2","0","null","null","arrowup","[0.325,0.675,0.15,0.85]","","",""
"sailing-trial","283","1357218","0.0-11.0-238.0","","","","false","","","","","","","","","","463.5","","369.89999999990687","","3","0","arrowright","1","arrowright","[0.325,0.675,0.15,0.85]","","",""
"sailing-trial","284","1360897","0.0-11.0-239.0","","","","false","","","","","","","","","","null","","1902.5","","2","0","null","null","arrowup","[0.325,0.675,0.15,0.85]","","",""
"sailing-trial","285","1364821","0.0-11.0-240.0","","","","false","","","","","","","","","","1543.9000000003725","","8.199999999720603","","3","0","arrowright","1","arrowright","[0.85,0.15,0.675,0.325]","","",""
"sailing-trial","286","1368536","0.0-11.0-241.0","","","","false","","","","","","","","","","null","","1811.8999999999069","","2","1","null","null","arrowup","[0.85,0.15,0.675,0.325]","","",""
"sailing-trial","287","1371553","0.0-11.0-242.0","","","","false","","","","","","","","","","535.6000000000931","","73.3000000002794","","3","0","arrowright","1","arrowright","[0.85,0.15,0.675,0.325]","","",""
"sailing-trial","288","1374957","0.0-11.0-243.0","","","","false","","","","","","","","","","null","","1870.6999999997206","","1","0","null","null","arrowup","[0.85,0.15,0.675,0.325]","","",""
"sailing-trial","289","1378935","0.0-11.0-244.0","","","","false","","","","","","","","","","647.2999999998137","","387.5","","2","1","arrowright","1","arrowleft","[0.85,0.15,0.675,0.325]","","",""
"sailing-trial","290","1381555","0.0-11.0-245.0","","","","false","","","","","","","","","","null","","828.7000000001863","","2","1","null","null","arrowup","[0.85,0.15,0.675,0.325]","","",""
"sailing-trial","291","1385297","0.0-11.0-246.0","","","","false","","","","","","","","","","489.10000000009313","","356.90000000037253","","2","1","arrowright","1","arrowleft","[0.85,0.15,0.675,0.325]","","",""
"sailing-trial","292","1388026","0.0-11.0-247.0","","","","false","","","","","","","","","","null","","974.5","","2","1","null","null","arrowup","[0.85,0.15,0.675,0.325]","","",""
"sailing-trial","293","1391446","0.0-11.0-248.0","","","","false","","","","","","","","","","138.20000000018626","","323.10000000009313","","2","1","arrowright","1","arrowleft","[0.85,0.15,0.675,0.325]","","",""
"sailing-trial","294","1394344","0.0-11.0-249.0","","","","false","","","","","","","","","","null","","1299.8000000002794","","0","1","null","null","arrowup","[0.85,0.15,0.675,0.325]","","",""
"sailing-trial","295","1397877","0.0-11.0-250.0","","","","false","","","","","","","","","","452.5","","446.70000000018626","","2","1","arrowright","1","arrowleft","[0.85,0.15,0.675,0.325]","","",""
"sailing-trial","296","1400275","0.0-11.0-251.0","","","","false","","","","","","","","","","null","","973.5999999996275","","3","0","null","null","arrowup","[0.85,0.15,0.675,0.325]","","",""
"sailing-trial","297","1404225","0.0-11.0-252.0","","","","false","","","","","","","","","","526.7999999998137","","470.39999999990687","","2","1","arrowright","1","arrowleft","[0.85,0.15,0.675,0.325]","","",""
"sailing-trial","298","1406681","0.0-11.0-253.0","","","","false","","","","","","","","","","null","","828.2999999998137","","2","1","null","null","arrowup","[0.85,0.15,0.675,0.325]","","",""
"sailing-trial","299","1410008","0.0-11.0-254.0","","","","false","","","","","","","","","","509.6999999997206","","225.1999999997206","","2","0","arrowright","1","arrowleft","[0.85,0.15,0.675,0.325]","","",""
"sailing-trial","300","1412445","0.0-11.0-255.0","","","","false","","","","","","","","","","null","","894.2000000001863","","3","0","null","null","arrowup","[0.85,0.15,0.675,0.325]","","",""
"sailing-trial","301","1415767","0.0-11.0-256.0","","","","false","","","","","","","","","","522.2999999998137","","315.5","","2","0","arrowright","1","arrowleft","[0.85,0.15,0.675,0.325]","","",""
"sailing-trial","302","1417822","0.0-11.0-257.0","","","","false","","","","","","","","","","null","","992.8999999999069","","0","0","null","null","arrowup","[0.85,0.15,0.675,0.325]","","",""
"sailing-trial","303","1421440","0.0-11.0-258.0","","","","false","","","","","","","","","","527.5","","315.6999999997206","","2","1","arrowright","1","arrowleft","[0.85,0.15,0.675,0.325]","","",""
"sailing-trial","304","1424845","0.0-11.0-259.0","","","","false","","","","","","","","","","null","","937.3999999999069","","0","1","null","null","arrowup","[0.85,0.15,0.675,0.325]","","",""
"sailing-trial","305","1428809","0.0-11.0-260.0","","","","false","","","","","","","","","","604.8999999999069","","396.70000000018626","","2","1","arrowright","1","arrowleft","[0.85,0.15,0.675,0.325]","","",""
"sailing-trial","306","1431500","0.0-11.0-261.0","","","","false","","","","","","","","","","null","","1133.2999999998137","","1","0","null","null","arrowup","[0.85,0.15,0.675,0.325]","","",""
"sailing-trial","307","1435384","0.0-11.0-262.0","","","","false","","","","","","","","","","664","","82.79999999981374","","2","1","arrowright","1","arrowleft","[0.675,0.325,0.85,0.15]","","",""
"sailing-trial","308","1438763","0.0-11.0-263.0","","","","false","","","","","","","","","","null","","1425.8000000002794","","1","0","null","null","arrowup","[0.675,0.325,0.85,0.15]","","",""
"sailing-trial","309","1443868","0.0-11.0-264.0","","","","false","","","","","","","","","","1203.3999999999069","","314.89999999990687","","2","0","arrowright","1","arrowleft","[0.675,0.325,0.85,0.15]","","",""
"sailing-trial","310","1447172","0.0-11.0-265.0","","","","false","","","","","","","","","","null","","1334.6999999997206","","2","1","null","null","arrowup","[0.675,0.325,0.85,0.15]","","",""
"sailing-trial","311","1450967","0.0-11.0-266.0","","","","false","","","","","","","","","","1189.7999999998137","","123.39999999990687","","2","0","arrowright","1","arrowleft","[0.675,0.325,0.85,0.15]","","",""
"sailing-trial","312","1453980","0.0-11.0-267.0","","","","false","","","","","","","","","","null","","1145.8999999999069","","0","1","null","null","arrowup","[0.675,0.325,0.85,0.15]","","",""
"sailing-trial","313","1458158","0.0-11.0-268.0","","","","false","","","","","","","","","","652","","478.89999999990687","","2","1","arrowright","1","arrowleft","[0.675,0.325,0.85,0.15]","","",""
"sailing-trial","314","1461347","0.0-11.0-269.0","","","","false","","","","","","","","","","null","","1235.3999999999069","","0","1","null","null","arrowup","[0.675,0.325,0.85,0.15]","","",""
"sailing-trial","315","1464752","0.0-11.0-270.0","","","","false","","","","","","","","","","452.5","","24.799999999813735","","2","0","arrowright","1","arrowleft","[0.675,0.325,0.85,0.15]","","",""
"sailing-trial","316","1468054","0.0-11.0-271.0","","","","false","","","","","","","","","","null","","1181.7000000001863","","0","1","null","null","arrowup","[0.675,0.325,0.85,0.15]","","",""
"sailing-trial","317","1471670","0.0-11.0-272.0","","","","false","","","","","","","","","","625.1000000000931","","210.5","","2","1","arrowright","1","arrowleft","[0.675,0.325,0.85,0.15]","","",""
"sailing-trial","318","1474314","0.0-11.0-273.0","","","","false","","","","","","","","","","null","","972.5","","1","1","null","null","arrowup","[0.675,0.325,0.85,0.15]","","",""
"sailing-trial","319","1477564","0.0-11.0-274.0","","","","false","","","","","","","","","","163.89999999990687","","350.39999999990687","","2","0","arrowright","1","arrowleft","[0.675,0.325,0.85,0.15]","","",""
"sailing-trial","320","1480665","0.0-11.0-275.0","","","","false","","","","","","","","","","null","","1010.0999999996275","","2","1","null","null","arrowup","[0.675,0.325,0.85,0.15]","","",""
"sailing-trial","321","1483522","0.0-11.0-276.0","","","","false","","","","","","","","","","502.6999999997206","","38.5","","1","0","arrowleft","0","arrowright","[0.675,0.325,0.85,0.15]","","",""
"sailing-trial","322","1486182","0.0-11.0-277.0","","","","false","","","","","","","","","","null","","955.7000000001863","","1","1","null","null","arrowup","[0.675,0.325,0.85,0.15]","","",""
"sailing-trial","323","1489163","0.0-11.0-278.0","","","","false","","","","","","","","","","458.39999999990687","","283.59999999962747","","1","0","arrowleft","0","arrowright","[0.85,0.15,0.675,0.325]","","",""
"sailing-trial","324","1491945","0.0-11.0-279.0","","","","false","","","","","","","","","","null","","1068.1000000000931","","2","1","null","null","arrowup","[0.85,0.15,0.675,0.325]","","",""
"sailing-trial","325","1495707","0.0-11.0-280.0","","","","false","","","","","","","","","","512.5999999996275","","393","","0","1","arrowleft","0","arrowleft","[0.85,0.15,0.675,0.325]","","",""
"sailing-trial","326","1497959","0.0-11.0-281.0","","","","false","","","","","","","","","","null","","859.2000000001863","","1","0","null","null","arrowup","[0.85,0.15,0.675,0.325]","","",""
"sailing-trial","327","1502582","0.0-11.0-282.0","","","","false","","","","","","","","","","561.2000000001863","","1081.3000000002794","","0","1","arrowleft","0","arrowleft","[0.85,0.15,0.675,0.325]","","",""
"sailing-trial","328","1505428","0.0-11.0-283.0","","","","false","","","","","","","","","","null","","750.2000000001863","","0","1","null","null","arrowup","[0.85,0.15,0.675,0.325]","","",""
"sailing-trial","329","1509402","0.0-11.0-284.0","","","","false","","","","","","","","","","722.3999999999069","","323","","0","1","arrowleft","0","arrowleft","[0.85,0.15,0.675,0.325]","","",""
"sailing-trial","330","1513592","0.0-11.0-285.0","","","","false","","","","","","","","","","null","","2407.2999999998137","","0","1","null","null","arrowup","[0.85,0.15,0.675,0.325]","","",""
"sailing-trial","331","1516967","0.0-11.0-286.0","","","","false","","","","","","","","","","601.7000000001863","","398.89999999990687","","0","0","arrowleft","0","arrowleft","[0.85,0.15,0.675,0.325]","","",""
"sailing-trial","332","1519698","0.0-11.0-287.0","","","","false","","","","","","","","","","null","","926","","2","1","null","null","arrowup","[0.85,0.15,0.675,0.325]","","",""
"sailing-trial","333","1522977","0.0-11.0-288.0","","","","false","","","","","","","","","","187.40000000037253","","278.5","","1","0","arrowleft","0","arrowright","[0.85,0.15,0.675,0.325]","","",""
"sailing-trial","334","1525945","0.0-11.0-289.0","","","","false","","","","","","","","","","null","","1056.3000000002794","","3","1","null","null","arrowup","[0.85,0.15,0.675,0.325]","","",""
"sailing-trial","335","1529749","0.0-11.0-290.0","","","","false","","","","","","","","","","538.1999999997206","","257.1999999997206","","0","1","arrowleft","0","arrowleft","[0.85,0.15,0.675,0.325]","","",""
"sailing-trial","336","1532727","0.0-11.0-291.0","","","","false","","","","","","","","","","null","","1078.1999999997206","","0","1","null","null","arrowup","[0.85,0.15,0.675,0.325]","","",""
"sailing-trial","337","1536456","0.0-11.0-292.0","","","","false","","","","","","","","","","503.70000000018626","","309.10000000009313","","0","1","arrowleft","0","arrowleft","[0.85,0.15,0.675,0.325]","","",""
"sailing-trial","338","1539527","0.0-11.0-293.0","","","","false","","","","","","","","","","null","","984.7000000001863","","0","1","null","null","arrowup","[0.85,0.15,0.675,0.325]","","",""
"sailing-trial","339","1543094","0.0-11.0-294.0","","","","false","","","","","","","","","","575.8000000002794","","456.5","","0","0","arrowleft","0","arrowleft","[0.85,0.15,0.675,0.325]","","",""
"sailing-trial","340","1545923","0.0-11.0-295.0","","","","false","","","","","","","","","","null","","1057.8000000002794","","3","0","null","null","arrowup","[0.85,0.15,0.675,0.325]","","",""
"sailing-trial","341","1549857","0.0-11.0-296.0","","","","false","","","","","","","","","","616.1000000000931","","226.60000000009313","","0","1","arrowleft","0","arrowleft","[0.675,0.325,0.85,0.15]","","",""
"sailing-trial","342","1552211","0.0-11.0-297.0","","","","false","","","","","","","","","","null","","715.1999999997206","","0","0","null","null","arrowup","[0.675,0.325,0.85,0.15]","","",""
"sailing-trial","343","1556356","0.0-11.0-298.0","","","","false","","","","","","","","","","858.6000000000931","","235.5","","0","1","arrowleft","0","arrowleft","[0.675,0.325,0.85,0.15]","","",""
"sailing-trial","344","1558483","0.0-11.0-299.0","","","","false","","","","","","","","","","null","","828.6999999997206","","3","0","null","null","arrowup","[0.675,0.325,0.85,0.15]","","",""
"sailing-trial","345","1562273","0.0-11.0-300.0","","","","false","","","","","","","","","","525.2999999998137","","503.89999999990687","","0","0","arrowleft","0","arrowleft","[0.675,0.325,0.85,0.15]","","",""
"sailing-trial","346","1565132","0.0-11.0-301.0","","","","false","","","","","","","","","","null","","906.7000000001863","","0","1","null","null","arrowup","[0.675,0.325,0.85,0.15]","","",""
"sailing-trial","347","1568590","0.0-11.0-302.0","","","","false","","","","","","","","","","438.3000000002794","","413.89999999990687","","0","0","arrowleft","0","arrowleft","[0.675,0.325,0.85,0.15]","","",""
"sailing-trial","348","1571553","0.0-11.0-303.0","","","","false","","","","","","","","","","null","","967.2000000001863","","2","1","null","null","arrowup","[0.675,0.325,0.85,0.15]","","",""
"sailing-trial","349","1575247","0.0-11.0-304.0","","","","false","","","","","","","","","","268.10000000009313","","348.89999999990687","","2","1","arrowright","1","arrowleft","[0.675,0.325,0.85,0.15]","","",""
"sailing-trial","350","1578369","0.0-11.0-305.0","","","","false","","","","","","","","","","null","","1186.9000000003725","","2","1","null","null","arrowup","[0.675,0.325,0.85,0.15]","","",""
"sailing-trial","351","1581692","0.0-11.0-306.0","","","","false","","","","","","","","","","486.60000000009313","","158.60000000009313","","2","0","arrowright","1","arrowleft","[0.675,0.325,0.85,0.15]","","",""
"sailing-trial","352","1583952","0.0-11.0-307.0","","","","false","","","","","","","","","","null","","1090.6999999997206","","0","0","null","null","arrowup","[0.675,0.325,0.85,0.15]","","",""
"sailing-trial","353","1587630","0.0-11.0-308.0","","","","false","","","","","","","","","","428.20000000018626","","117.39999999990687","","2","1","arrowright","1","arrowleft","[0.675,0.325,0.85,0.15]","","",""
"sailing-trial","354","1590132","0.0-11.0-309.0","","","","false","","","","","","","","","","null","","997.2999999998137","","1","0","null","null","arrowup","[0.675,0.325,0.85,0.15]","","",""
"sailing-trial","355","1593573","0.0-11.0-310.0","","","","false","","","","","","","","","","295.20000000018626","","42.89999999990687","","2","1","arrowright","1","arrowleft","[0.675,0.325,0.85,0.15]","","",""
"sailing-trial","356","1596480","0.0-11.0-311.0","","","","false","","","","","","","","","","null","","948.6000000000931","","0","1","null","null","arrowup","[0.675,0.325,0.85,0.15]","","",""
"sailing-trial","357","1600158","0.0-11.0-312.0","","","","false","","","","","","","","","","554.7999999998137","","50","","2","1","arrowright","1","arrowleft","[0.85,0.15,0.675,0.325]","","",""
"sailing-trial","358","1602384","0.0-11.0-313.0","","","","false","","","","","","","","","","null","","993.7999999998137","","3","0","null","null","arrowup","[0.85,0.15,0.675,0.325]","","",""
"sailing-trial","359","1606122","0.0-11.0-314.0","","","","false","","","","","","","","","","455.89999999990687","","121.39999999990687","","2","1","arrowright","1","arrowleft","[0.85,0.15,0.675,0.325]","","",""
"sailing-trial","360","1608307","0.0-11.0-315.0","","","","false","","","","","","","","","","null","","926.7999999998137","","0","0","null","null","arrowup","[0.85,0.15,0.675,0.325]","","",""
"sailing-trial","361","1611848","0.0-11.0-316.0","","","","false","","","","","","","","","","435.3000000002794","","100.60000000009313","","2","1","arrowright","1","arrowleft","[0.85,0.15,0.675,0.325]","","",""
"sailing-trial","362","1614904","0.0-11.0-317.0","","","","false","","","","","","","","","","null","","732.2999999998137","","0","1","null","null","arrowup","[0.85,0.15,0.675,0.325]","","",""
"sailing-trial","363","1619059","0.0-11.0-318.0","","","","false","","","","","","","","","","448.29999999981374","","350.5","","2","0","arrowright","1","arrowleft","[0.85,0.15,0.675,0.325]","","",""
"sailing-trial","364","1621469","0.0-11.0-319.0","","","","false","","","","","","","","","","null","","908.5","","1","0","null","null","arrowup","[0.85,0.15,0.675,0.325]","","",""
"sailing-trial","365","1625818","0.0-11.0-320.0","","","","false","","","","","","","","","","725.5","","420.6999999997206","","0","1","arrowleft","0","arrowleft","[0.85,0.15,0.675,0.325]","","",""
"sailing-trial","366","1627905","0.0-11.0-321.0","","","","false","","","","","","","","","","null","","702.6000000000931","","2","0","null","null","arrowup","[0.85,0.15,0.675,0.325]","","",""
"sailing-trial","367","1631406","0.0-11.0-322.0","","","","false","","","","","","","","","","502.29999999981374","","21.200000000186265","","2","0","arrowright","1","arrowleft","[0.85,0.15,0.675,0.325]","","",""
"sailing-trial","368","1633918","0.0-11.0-323.0","","","","false","","","","","","","","","","null","","1013.2000000001863","","0","0","null","null","arrowup","[0.85,0.15,0.675,0.325]","","",""
"sailing-trial","369","1637486","0.0-11.0-324.0","","","","false","","","","","","","","","","373","","42.60000000009313","","2","1","arrowright","1","arrowleft","[0.85,0.15,0.675,0.325]","","",""
"sailing-trial","370","1640078","0.0-11.0-325.0","","","","false","","","","","","","","","","null","","1057","","1","0","null","null","arrowup","[0.85,0.15,0.675,0.325]","","",""
"sailing-trial","371","1643487","0.0-11.0-326.0","","","","false","","","","","","","","","","587.8999999999069","","336.6999999997206","","2","0","arrowright","1","arrowleft","[0.85,0.15,0.675,0.325]","","",""
"sailing-trial","372","1645897","0.0-11.0-327.0","","","","false","","","","","","","","","","null","","1077.1000000000931","","3","0","null","null","arrowup","[0.85,0.15,0.675,0.325]","","",""
"sailing-trial","373","1650817","0.0-11.0-328.0","","","","false","","","","","","","","","","1214.2000000001863","","1256","","2","0","arrowright","1","arrowleft","[0.15,0.85,0.325,0.675]","","",""
"sailing-trial","374","1654696","0.0-11.0-329.0","","","","false","","","","","","","","","","null","","2000.4000000003725","","3","1","null","null","arrowup","[0.15,0.85,0.325,0.675]","","",""
"sailing-trial","375","1659187","0.0-11.0-330.0","","","","false","","","","","","","","","","953.7999999998137","","600.9000000003725","","3","1","arrowright","1","arrowright","[0.15,0.85,0.325,0.675]","","",""
"sailing-trial","376","1663874","0.0-11.0-331.0","","","","false","","","","","","","","","","null","","3445.7999999998137","","0","0","null","null","arrowup","[0.15,0.85,0.325,0.675]","","",""
"sailing-trial","377","1667074","0.0-11.0-332.0","","","","false","","","","","","","","","","512.6000000000931","","357.20000000018626","","3","0","arrowright","1","arrowright","[0.15,0.85,0.325,0.675]","","",""
"sailing-trial","378","1671015","0.0-11.0-333.0","","","","false","","","","","","","","","","null","","2598.5","","2","0","null","null","arrowup","[0.15,0.85,0.325,0.675]","","",""
"sailing-trial","379","1675273","0.0-11.0-334.0","","","","false","","","","","","","","","","578.2000000001863","","194.5","","3","1","arrowright","1","arrowright","[0.15,0.85,0.325,0.675]","","",""
"sailing-trial","380","1679689","0.0-11.0-335.0","","","","false","","","","","","","","","","null","","3044.100000000093","","2","0","null","null","arrowup","[0.15,0.85,0.325,0.675]","","",""
"sailing-trial","381","1685301","0.0-11.0-336.0","","","","false","","","","","","","","","","550.1000000000931","","11.5","","3","1","arrowright","1","arrowright","[0.15,0.85,0.325,0.675]","","",""
"sailing-trial","382","1688821","0.0-11.0-337.0","","","","false","","","","","","","","","","null","","1600.2999999998137","","1","1","null","null","arrowup","[0.15,0.85,0.325,0.675]","","",""
"sailing-trial","383","1693294","0.0-11.0-338.0","","","","false","","","","","","","","","","682.6000000000931","","1252.5999999996275","","3","0","arrowright","1","arrowright","[0.15,0.85,0.325,0.675]","","",""
"sailing-trial","384","1696745","0.0-11.0-339.0","","","","false","","","","","","","","","","null","","1539.5999999996275","","3","1","null","null","arrowup","[0.15,0.85,0.325,0.675]","","",""
"sailing-trial","385","1701165","0.0-11.0-340.0","","","","false","","","","","","","","","","471.5","","478.79999999981374","","3","1","arrowright","1","arrowright","[0.15,0.85,0.325,0.675]","","",""
"sailing-trial","386","1705570","0.0-11.0-341.0","","","","false","","","","","","","","","","null","","2545.7999999998137","","1","1","null","null","arrowup","[0.15,0.85,0.325,0.675]","","",""
"sailing-trial","387","1710087","0.0-11.0-342.0","","","","false","","","","","","","","","","682.2999999998137","","304.70000000018626","","3","1","arrowright","1","arrowright","[0.15,0.85,0.325,0.675]","","",""
"sailing-trial","388","1712489","0.0-11.0-343.0","","","","false","","","","","","","","","","null","","953","","3","0","null","null","arrowup","[0.15,0.85,0.325,0.675]","","",""
"sailing-trial","389","1716065","0.0-11.0-344.0","","","","false","","","","","","","","","","380.60000000009313","","771.4000000003725","","3","0","arrowright","1","arrowright","[0.675,0.325,0.85,0.15]","","",""
"sailing-trial","390","1719681","0.0-11.0-345.0","","","","false","","","","","","","","","","null","","1743.5999999996275","","0","1","null","null","arrowup","[0.675,0.325,0.85,0.15]","","",""
"sailing-trial","391","1723119","0.0-11.0-346.0","","","","false","","","","","","","","","","554.4000000003725","","612.8000000002794","","3","0","arrowright","1","arrowright","[0.675,0.325,0.85,0.15]","","",""
"sailing-trial","392","1727216","0.0-11.0-347.0","","","","false","","","","","","","","","","null","","1992.8999999999069","","1","1","null","null","arrowup","[0.675,0.325,0.85,0.15]","","",""
"sailing-trial","393","1730409","0.0-11.0-348.0","","","","false","","","","","","","","","","639","","118.1999999997206","","1","0","arrowleft","0","arrowright","[0.675,0.325,0.85,0.15]","","",""
"sailing-trial","394","1734177","0.0-11.0-349.0","","","","false","","","","","","","","","","null","","1951","","0","1","null","null","arrowup","[0.675,0.325,0.85,0.15]","","",""
"sailing-trial","395","1738361","0.0-11.0-350.0","","","","false","","","","","","","","","","1189.5","","562.5","","0","0","arrowleft","0","arrowleft","[0.675,0.325,0.85,0.15]","","",""
"sailing-trial","396","1742169","0.0-11.0-351.0","","","","false","","","","","","","","","","null","","2493.600000000093","","1","0","null","null","arrowup","[0.675,0.325,0.85,0.15]","","",""
"sailing-trial","397","1746318","0.0-11.0-352.0","","","","false","","","","","","","","","","800.5999999996275","","291.3000000002794","","0","1","arrowleft","0","arrowleft","[0.675,0.325,0.85,0.15]","","",""
"sailing-trial","398","1748822","0.0-11.0-353.0","","","","false","","","","","","","","","","null","","970.7000000001863","","1","0","null","null","arrowup","[0.675,0.325,0.85,0.15]","","",""
"sailing-trial","399","1752099","0.0-11.0-354.0","","","","false","","","","","","","","","","714.3000000002794","","111","","0","0","arrowleft","0","arrowleft","[0.675,0.325,0.85,0.15]","","",""
"sailing-trial","400","1754652","0.0-11.0-355.0","","","","false","","","","","","","","","","null","","810.8999999999069","","2","1","null","null","arrowup","[0.675,0.325,0.85,0.15]","","",""
"sailing-trial","401","1758451","0.0-11.0-356.0","","","","false","","","","","","","","","","631.8999999999069","","154.3000000002794","","2","1","arrowright","1","arrowleft","[0.675,0.325,0.85,0.15]","","",""
"sailing-trial","402","1761408","0.0-11.0-357.0","","","","false","","","","","","","","","","null","","1114.5","","3","1","null","null","arrowup","[0.675,0.325,0.85,0.15]","","",""
"sailing-trial","403","1765723","0.0-11.0-358.0","","","","false","","","","","","","","","","833.4000000003725","","326.89999999990687","","2","1","arrowright","1","arrowleft","[0.675,0.325,0.85,0.15]","","",""
"sailing-trial","404","1770437","0.0-11.0-359.0","","","","false","","","","","","","","","","null","","2851.1999999997206","","0","1","null","null","arrowup","[0.675,0.325,0.85,0.15]","","",""
"sailing-trial","405","1774322","0.0-11.0-360.0","","","","false","","","","","","","","","","922.3000000002794","","64.89999999990687","","2","1","arrowright","1","arrowleft","[0.675,0.325,0.85,0.15]","","",""
"sailing-trial","406","1776592","0.0-11.0-361.0","","","","false","","","","","","","","","","null","","932.2000000001863","","0","0","null","null","arrowup","[0.675,0.325,0.85,0.15]","","",""
"sailing-trial","407","1780470","0.0-11.0-362.0","","","","false","","","","","","","","","","423.60000000009313","","6","","2","1","arrowright","1","arrowleft","[0.675,0.325,0.85,0.15]","","",""
"sailing-trial","408","1783855","0.0-11.0-363.0","","","","false","","","","","","","","","","null","","1500.8999999999069","","1","1","null","null","arrowup","[0.675,0.325,0.85,0.15]","","",""
"sailing-trial","409","1787625","0.0-11.0-364.0","","","","false","","","","","","","","","","479.10000000009313","","60.8000000002794","","2","1","arrowright","1","arrowleft","[0.675,0.325,0.85,0.15]","","",""
"sailing-trial","410","1790687","0.0-11.0-365.0","","","","false","","","","","","","","","","null","","1583.1000000000931","","3","0","null","null","arrowup","[0.675,0.325,0.85,0.15]","","",""
"sailing-trial","411","1794417","0.0-11.0-366.0","","","","false","","","","","","","","","","480.60000000009313","","46","","2","1","arrowright","1","arrowleft","[0.675,0.325,0.85,0.15]","","",""
"sailing-trial","412","1796865","0.0-11.0-367.0","","","","false","","","","","","","","","","null","","1116.3000000002794","","1","0","null","null","arrowup","[0.675,0.325,0.85,0.15]","","",""
"sailing-trial","413","1800594","0.0-11.0-368.0","","","","false","","","","","","","","","","401.70000000018626","","410.20000000018626","","2","1","arrowright","1","arrowleft","[0.85,0.15,0.675,0.325]","","",""
"sailing-trial","414","1803666","0.0-11.0-369.0","","","","false","","","","","","","","","","null","","1149.3999999999069","","1","1","null","null","arrowup","[0.85,0.15,0.675,0.325]","","",""
"sailing-trial","415","1807885","0.0-11.0-370.0","","","","false","","","","","","","","","","774","","447.10000000009313","","2","1","arrowright","1","arrowleft","[0.85,0.15,0.675,0.325]","","",""
"sailing-trial","416","1810520","0.0-11.0-371.0","","","","false","","","","","","","","","","null","","1005.8000000002794","","1","0","null","null","arrowup","[0.85,0.15,0.675,0.325]","","",""
"sailing-trial","417","1814404","0.0-11.0-372.0","","","","false","","","","","","","","","","834.1000000000931","","203.1999999997206","","2","0","arrowright","1","arrowleft","[0.85,0.15,0.675,0.325]","","",""
"sailing-trial","418","1819024","0.0-11.0-373.0","","","","false","","","","","","","","","","null","","3375.7000000001863","","2","0","null","null","arrowup","[0.85,0.15,0.675,0.325]","","",""
"sailing-trial","419","1823473","0.0-11.0-374.0","","","","false","","","","","","","","","","908.2000000001863","","393.10000000009313","","0","1","arrowleft","0","arrowleft","[0.85,0.15,0.675,0.325]","","",""
"sailing-trial","420","1825638","0.0-11.0-375.0","","","","false","","","","","","","","","","null","","791.3999999999069","","1","0","null","null","arrowup","[0.85,0.15,0.675,0.325]","","",""
"sailing-trial","421","1829899","0.0-11.0-376.0","","","","false","","","","","","","","","","552.8000000002794","","363.39999999990687","","0","1","arrowleft","0","arrowleft","[0.85,0.15,0.675,0.325]","","",""
"sailing-trial","422","1832745","0.0-11.0-377.0","","","","false","","","","","","","","","","null","","945","","3","1","null","null","arrowup","[0.85,0.15,0.675,0.325]","","",""
"sailing-trial","423","1836621","0.0-11.0-378.0","","","","false","","","","","","","","","","457.70000000018626","","415.39999999990687","","0","1","arrowleft","0","arrowleft","[0.85,0.15,0.675,0.325]","","",""
"sailing-trial","424","1838994","0.0-11.0-379.0","","","","false","","","","","","","","","","null","","1006.6000000000931","","3","0","null","null","arrowup","[0.85,0.15,0.675,0.325]","","",""
"sailing-trial","425","1842682","0.0-11.0-380.0","","","","false","","","","","","","","","","700.7000000001863","","125.10000000009313","","0","1","arrowleft","0","arrowleft","[0.85,0.15,0.675,0.325]","","",""
"sailing-trial","426","1844975","0.0-11.0-381.0","","","","false","","","","","","","","","","null","","915.7000000001863","","1","0","null","null","arrowup","[0.85,0.15,0.675,0.325]","","",""
"sailing-trial","427","1848994","0.0-11.0-382.0","","","","false","","","","","","","","","","645.2999999998137","","447.39999999990687","","0","1","arrowleft","0","arrowleft","[0.85,0.15,0.675,0.325]","","",""
"sailing-trial","428","1851722","0.0-11.0-383.0","","","","false","","","","","","","","","","null","","1368.7999999998137","","1","0","null","null","arrowup","[0.85,0.15,0.675,0.325]","","",""
"sailing-trial","429","1856991","0.0-11.0-384.0","","","","false","","","","","","","","","","1237.0999999996275","","277.20000000018626","","0","1","arrowleft","0","arrowleft","[0.675,0.325,0.85,0.15]","","",""
"sailing-trial","430","1860382","0.0-11.0-385.0","","","","false","","","","","","","","","","null","","1518.2000000001863","","2","1","null","null","arrowup","[0.675,0.325,0.85,0.15]","","",""
"sailing-trial","431","1864184","0.0-11.0-386.0","","","","false","","","","","","","","","","1147.7999999998137","","298.60000000009313","","0","0","arrowleft","0","arrowleft","[0.675,0.325,0.85,0.15]","","",""
"sailing-trial","432","1867741","0.0-11.0-387.0","","","","false","","","","","","","","","","null","","1559.4000000003725","","0","1","null","null","arrowup","[0.675,0.325,0.85,0.15]","","",""
"sailing-trial","433","1871411","0.0-11.0-388.0","","","","false","","","","","","","","","","439.79999999981374","","301.60000000009313","","0","1","arrowleft","0","arrowleft","[0.675,0.325,0.85,0.15]","","",""
"sailing-trial","434","1874872","0.0-11.0-389.0","","","","false","","","","","","","","","","null","","1589.5","","0","1","null","null","arrowup","[0.675,0.325,0.85,0.15]","","",""
"sailing-trial","435","1879236","0.0-11.0-390.0","","","","false","","","","","","","","","","564.6999999997206","","164.79999999981374","","0","1","arrowleft","0","arrowleft","[0.675,0.325,0.85,0.15]","","",""
"sailing-trial","436","1881992","0.0-11.0-391.0","","","","false","","","","","","","","","","null","","964.7000000001863","","2","1","null","null","arrowup","[0.675,0.325,0.85,0.15]","","",""
"sailing-trial","437","1885537","0.0-11.0-392.0","","","","false","","","","","","","","","","661.1000000000931","","66.6999999997206","","0","0","arrowleft","0","arrowleft","[0.675,0.325,0.85,0.15]","","",""
"sailing-trial","438","1889124","0.0-11.0-393.0","","","","false","","","","","","","","","","null","","2170.399999999907","","3","0","null","null","arrowup","[0.675,0.325,0.85,0.15]","","",""
"sailing-trial","439","1892721","0.0-11.0-394.0","","","","false","","","","","","","","","","656.8999999999069","","136.29999999981374","","0","1","arrowleft","0","arrowleft","[0.675,0.325,0.85,0.15]","","",""
"sailing-trial","440","1894964","0.0-11.0-395.0","","","","false","","","","","","","","","","null","","870.2999999998137","","3","0","null","null","arrowup","[0.675,0.325,0.85,0.15]","","",""
"sailing-trial","441","1898347","0.0-11.0-396.0","","","","false","","","","","","","","","","548.5","","1","","0","1","arrowleft","0","arrowleft","[0.675,0.325,0.85,0.15]","","",""
"sailing-trial","442","1900833","0.0-11.0-397.0","","","","false","","","","","","","","","","null","","969.5","","1","0","null","null","arrowup","[0.675,0.325,0.85,0.15]","","",""
"sailing-trial","443","1904871","0.0-11.0-398.0","","","","false","","","","","","","","","","557.3999999999069","","436.20000000018626","","0","1","arrowleft","0","arrowleft","[0.675,0.325,0.85,0.15]","","",""
"sailing-trial","444","1907340","0.0-11.0-399.0","","","","false","","","","","","","","","","null","","947.7000000001863","","3","0","null","null","arrowup","[0.675,0.325,0.85,0.15]","","",""
"instructions","445","1915556","0.0-12.0","","","","","","","","","","8213.5","","","","","","","","","","","","","","","","[{""page_index"":0,""viewing_time"":8212.899999999907}]"
"survey-debrief","446","1964186","0.0-13.0","","","","","","","","","","48625","","","","","","","","","","","","","","{""difficulty"":""3"",""fun"":""4"",""clarity"":""5"",""strategy"":""no"",""feedback"":""fun game""}","",""
