"trial_type","trial_index","time_elapsed","internal_node_id","value","metadata","success","timeout","failed_images","failed_audio","failed_video","browser_interaction","low_quality","rt","stimulus","response","button_pressed","island_rt","island_response","boat_rt","boat_response","boat","reward","island_key","island","boat_key","reward_probabilities","responses","num_errors","view_history"
"pavlovia","0","3","0.0-0.0","","","","","","","","","","","","","","","","","","","","","","","","","",""
"call-function","1","3","0.0-1.0","","{""task_version"":""sailing_part1_v1"",""task_condition"":""good"",""boats"":[""B"",""C"",""D"",""A""],""boats_demo"":[""H"",""F"",""E"",""G""],""islands"":[""A"",""B""],""subject_id"":""13889"",""age"":""14"",""gender"":""Male""}","","","","","","","","","","","","","","","","","","","","","","","",""
"preload","2","1935","0.0-2.0","","","true","false","[]","[]","[]","[{""event"":""fullscreenenter"",""trial"":3,""time"":9737}]","false","","","","","","","","","","","","","","","","",""
"fullscreen","3","10724","0.0-3.0","","","true","","","","","","","","","","","","","","","","","","","","","","",""
"audio-keyboard-response","4","12752","0.0-4.0-0.0","","","","","","","","","","2032","audio/beep_loop.wav"," ","","","","","","","","","","","","","",""
"audio-test","5","15194","0.0-4.0-1.0","","","","","","","","","","null","audio/turtle.mp3","","3","","","","","","","","","","","","",""
"audio-test","6","17838","0.0-4.0-2.0","","","","","","","","","","null","audio/shark.mp3","","2","","","","","","","","","","","","",""
"sailing-instructions","7","65127","0.0-5.0-0.0-0.0","","","","","","","","","","","","","","null","null","null","null","null","null","","","","","","",""
"sailing-trial","8","68146","0.0-5.0-0.0-1.0-0.0","","","","false","","","","","","","","","","1884.3999999761581","","null","","null","null","arrowleft","0","null","null","","",""
"sailing-trial","9","70810","0.0-5.0-0.0-1.0-1.0","","","","false","","","","","","","","","","1533.1000000238419","","null","","null","null","arrowright","1","null","null","","",""
"sailing-trial","10","73257","0.0-5.0-0.0-1.0-2.0","","","","false","","","","","","","","","","1320.1000000238419","","null","","null","null","arrowleft","0","null","null","","",""
"sailing-instructions","11","117984","0.0-5.0-0.0-2.0","","","","","","","","","","","","","","null","null","null","null","0","null","","","","","","",""
"sailing-trial","12","122965","0.0-5.0-0.0-3.0-0.0","","","","false","","","","","","","","","","null","","2132.2000000476837","","2","1","null","null","arrowleft","[1,1,1,1]","","",""
"sailing-trial","13","126379","0.0-5.0-0.0-3.0-1.0","","","","false","","","","","","","","","","null","","867","","3","1","null","null","arrowright","[1,1,1,1]","","",""
"sailing-trial","14","130524","0.0-5.0-0.0-3.0-2.0","","","","false","","","","","","","","","","null","","1203.7000000476837","","3","0","null","null","arrowright","[0,0,0,0]","","",""
"sailing-instructions","15","137979","0.0-5.0-0.0-4.0","","","","","","","","","","","","","","null","null","null","null","null","null","","","","","","",""
"sailing-comprehension","16","174358","0.0-5.0-0.0-5.0","","","","","","","","","","33733.10000002384","","","","","","","","","","","","","","[""true"",""true"",""false"",""true""]","0",""
"sailing-instructions","17","238729","0.0-6.0-0.0-0.0","","","","","","","","","","","","","","null","null","null","null","null","null","","","","","","",""
"sailing-comprehension","18","268242","0.0-6.0-0.0-1.0","","","","","","","","","","25607.800000071526","","","","","","","","","","","","","","[""true"",""true"",""true""]","1",""
"sailing-instructions","19","328210","0.0-6.0-0.1-0.1","","","","","","","","","","","","","","null","null","null","null","null","null","","","","","","",""
"sailing-comprehension","20","336955","0.0-6.0-0.1-1.1","","","","","","","","","","7662.700000047684","","","","","","","","","","","","","","[""true"",""false"",""true""]","0",""
"sailing-instructions","21","352957","0.0-7.0-0.0-0.0","","","","","","","","","","","","","","null","null","null","null","null","null","","","","","","",""
"sailing-trial","22","358559","0.0-7.0-0.0-1.0-0.0","","","","false","","","","","","","","","","null","","3176.5","","0","0","null","null","arrowup","[0.2,0.8,0.2,0.8]","","",""
"sailing-trial","23","361956","0.0-7.0-0.0-1.0-1.0","","","","false","","","","","","","","","","null","","1265.6000000238419","","1","1","null","null","arrowup","[0.2,0.8,0.2,0.8]","","",""
"sailing-trial","24","364753","0.0-7.0-0.0-1.0-2.0","","","","false","","","","","","","","","","null","","965.2999999523163","","2","0","null","null","arrowup","[0.2,0.8,0.2,0.8]","","",""
"sailing-trial","25","367884","0.0-7.0-0.0-1.0-3.0","","","","false","","","","","","","","","","null","","1045.5","","3","1","null","null","arrowup","[0.2,0.8,0.2,0.8]","","",""
"sailing-comprehension","26","378410","0.0-7.0-0.0-2.0","","","","","","","","","","8680.400000095367","","","","","","","","","","","","","","[""false""]","0",""
"sailing-instructions","27","391577","0.0-8.0-0.0-0.0","","","","","","","","","","","","","","null","null","null","null","null","null","","","","","","",""
"sailing-comprehension","28","396577","0.0-8.0-0.0-1.0","","","","","","","","","","4062.899999976158","","","","","","","","","","","","","","[""true""]","0",""
"sailing-instructions","29","448076","0.0-9.0-0.0-0.0","","","","","","","","","","","","","","null","null","null","null","null","null","","","","","","",""
"sailing-trial","30","453677","0.0-9.0-0.0-1.0-0.0","","","","false","","","","","","","","","","1885.6000000238419","","684.8999999761581","","2","0","arrowright","1","arrowleft","[0.2,0.8,0.2,0.8]","","",""
"sailing-trial","31","458339","0.0-9.0-0.0-1.0-1.0","","","","false","","","","","","","","","","1029.3000000715256","","189.79999995231628","","3","1","arrowright","1","arrowright","[0.2,0.8,0.2,0.8]","","",""
"sailing-trial","32","461369","0.0-9.0-0.0-1.0-2.0","","","","false","","","","","","","","","","null","","1348.3999999761581","","0","0","null","null","arrowup","[0.2,0.8,0.2,0.8]","","",""
"sailing-trial","33","465717","0.0-9.0-0.0-1.0-3.0","","","","false","","","","","","","","","","838.8999999761581","","266.89999997615814","","1","1","arrowleft","0","arrowright","[0.2,0.8,0.2,0.8]","","",""
"sailing-trial","34","468848","0.0-9.0-0.0-1.0-4.0","","","","false","","","","","","","","","","null","","1097.5","","3","1","null","null","arrowup","[0.2,0.8,0.2,0.8]","","",""
"sailing-trial","35","473344","0.0-9.0-0.0-1.0-5.0","","","","false","","","","[{""event"":""fullscreenenter"",""trial"":3,""time"":9737},{""event"":""blur"",""trial"":36,""time"":495749},{""event"":""focus"",""trial"":36,""time"":495947}]","false","","","","","844.8999999761581","","548.5","","3","1","arrowright","1","arrowright","[0.2,0.8,0.2,0.8]","","",""
"sailing-instructions","36","508139","0.0-10.0","","","","","","","","","","","","","","null","null","null","null","null","null","","","","","","",""
"sailing-trial","37","514357","0.0-11.0-0.0","","","","false","","","","","","","","","","2138.1999999284744","","709","","2","1","arrowright","1","arrowleft","[0.675,0.325,0.85,0.15]","","",""
"sailing-trial","38","516984","0.0-11.0-1.0","","","","false","","","","","","","","","","null","","981.2999999523163","","1","0","null","null","arrowup","[0.675,0.325,0.85,0.15]","","",""
"sailing-trial","39","521831","0.0-11.0-2.0","","","","false","","","","","","","","","","908.6999999284744","","830.5999999046326","","2","1","arrowright","1","arrowleft","[0.675,0.325,0.85,0.15]","","",""
"sailing-trial","40","524977","0.0-11.0-3.0","","","","false","","","","","","","","","","null","","1164.1000000238419","","0","1","null","null","arrowup","[0.675,0.325,0.85,0.15]","","",""
"sailing-trial","41","529373","0.0-11.0-4.0","","","","false","","","","","","","","","","731.2000000476837","","711.8000000715256","","0","1","arrowleft","0","arrowleft","[0.675,0.325,0.85,0.15]","","",""
"sailing-trial","42","532271","0.0-11.0-5.0","","","","false","","","","","","","","","","null","","912.1000000238419","","3","0","null","null","arrowup","[0.675,0.325,0.85,0.15]","","",""
"sailing-trial","43","535767","0.0-11.0-6.0","","","","false","","","","","","","","","","774.1999999284744","","327","","3","0","arrowright","1","arrowright","[0.675,0.325,0.85,0.15]","","",""
"sailing-trial","44","538784","0.0-11.0-7.0","","","","false","","","","","","","","","","null","","1074.8999999761581","","2","1","null","null","arrowup","[0.675,0.325,0.85,0.15]","","",""
"sailing-trial","45","542908","0.0-11.0-8.0","","","","false","","","","","","","","","","571.1999999284744","","695.6000000238419","","0","0","arrowleft","0","arrowleft","[0.675,0.325,0.85,0.15]","","",""
"sailing-trial","46","546544","0.0-11.0-9.0","","","","false","","","","","","","","","","null","","1525.7000000476837","","2","1","null","null","arrowup","[0.675,0.325,0.85,0.15]","","",""
"sailing-trial","47","550064","0.0-11.0-10.0","","","","false","","","","","","","","","","425.2000000476837","","552.4000000953674","","2","0","arrowright","1","arrowleft","[0.675,0.325,0.85,0.15]","","",""
"sailing-trial","48","552794","0.0-11.0-11.0","","","","false","","","","","","","","","","null","","1333.5","","3","0","null","null","arrowup","[0.675,0.325,0.85,0.15]","","",""
"sailing-trial","49","557579","0.0-11.0-12.0","","","","false","","","","","","","","","","836.5","","240.70000004768372","","3","0","arrowright","1","arrowright","[0.675,0.325,0.85,0.15]","","",""
"sailing-trial","50","561030","0.0-11.0-13.0","","","","false","","","","","","","","","","null","","1137.7999999523163","","0","1","null","null","arrowup","[0.675,0.325,0.85,0.15]","","",""
"sailing-trial","51","565118","0.0-11.0-14.0","","","","false","","","","","","","","","","546.7999999523163","","936.6999999284744","","1","0","arrowleft","0","arrowright","[0.675,0.325,0.85,0.15]","","",""
"sailing-trial","52","568194","0.0-11.0-15.0","","","","false","","","","","","","","","","null","","786.6000000238419","","0","1","null","null","arrowup","[0.675,0.325,0.85,0.15]","","",""
"sailing-trial","53","573073","0.0-11.0-16.0","","","","false","","","","","","","","","","1317.3999999761581","","412.39999997615814","","0","1","arrowleft","0","arrowleft","[0.85,0.15,0.675,0.325]","","",""
"sailing-trial","54","575987","0.0-11.0-17.0","","","","false","","","","","","","","","","null","","812.7000000476837","","2","1","null","null","arrowup","[0.85,0.15,0.675,0.325]","","",""
"sailing-trial","55","579670","0.0-11.0-18.0","","","","false","","","","","","","","","","534.8000000715256","","503.2999999523163","","2","0","arrowright","1","arrowleft","[0.85,0.15,0.675,0.325]","","",""
"sailing-trial","56","582652","0.0-11.0-19.0","","","","false","","","","","","","","","","null","","1736.7999999523163","","1","0","null","null","arrowup","[0.85,0.15,0.675,0.325]","","",""
"sailing-trial","57","587094","0.0-11.0-20.0","","","","false","","","","","","","","","","1288.1999999284744","","24.299999952316284","","0","1","arrowleft","0","arrowleft","[0.85,0.15,0.675,0.325]","","",""
"sailing-trial","58","590576","0.0-11.0-21.0","","","","false","","","","","","","","","","null","","1241.2000000476837","","3","0","null","null","arrowup","[0.85,0.15,0.675,0.325]","","",""
"sailing-trial","59","594627","0.0-11.0-22.0","","","","false","","","","","","","","","","1537.1000000238419","","41.89999997615814","","3","0","arrowright","1","arrowright","[0.85,0.15,0.675,0.325]","","",""
"sailing-trial","60","597621","0.0-11.0-23.0","","","","false","","","","","","","","","","null","","1099.1000000238419","","0","1","null","null","arrowup","[0.85,0.15,0.675,0.325]","","",""
"sailing-trial","61","602032","0.0-11.0-24.0","","","","false","","","","","","","","","","724.6000000238419","","306.3000000715256","","0","1","arrowleft","0","arrowleft","[0.85,0.15,0.675,0.325]","","",""
"sailing-trial","62","604912","0.0-11.0-25.0","","","","false","","","","","","","","","","null","","897.7000000476837","","3","1","null","null","arrowup","[0.85,0.15,0.675,0.325]","","",""
"sailing-trial","63","610007","0.0-11.0-26.0","","","","false","","","","","","","","","","1203.8999999761581","","888.1000000238419","","0","1","arrowleft","0","arrowleft","[0.85,0.15,0.675,0.325]","","",""
"sailing-trial","64","612516","0.0-11.0-27.0","","","","false","","","","","","","","","","null","","942.2000000476837","","1","0","null","null","arrowup","[0.85,0.15,0.675,0.325]","","",""
"sailing-trial","65","618003","0.0-11.0-28.0","","","","false","","","","","","","","","","1581.1000000238419","","468.10000002384186","","0","1","arrowleft","0","arrowleft","[0.85,0.15,0.675,0.325]","","",""
"sailing-trial","66","621281","0.0-11.0-29.0","","","","false","","","","","","","","","","null","","907.7000000476837","","2","1","null","null","arrowup","[0.85,0.15,0.675,0.325]","","",""
"sailing-trial","67","625711","0.0-11.0-30.0","","","","false","","","","","","","","","","1459","","57.300000071525574","","0","1","arrowleft","0","arrowleft","[0.85,0.15,0.675,0.325]","","",""
"sailing-trial","68","628471","0.0-11.0-31.0","","","","false","","","","","","","","","","null","","1216.2999999523163","","1","0","null","null","arrowup","[0.85,0.15,0.675,0.325]","","",""
"sailing-trial","69","633154","0.0-11.0-32.0","","","","false","","","","","","","","","","1022.5999999046326","","418.59999990463257","","0","1","arrowleft","0","arrowleft","[0.85,0.15,0.675,0.325]","","",""
"sailing-trial","70","635905","0.0-11.0-33.0","","","","false","","","","","","","","","","null","","1003","","3","0","null","null","arrowup","[0.85,0.15,0.675,0.325]","","",""
"sailing-trial","71","639314","0.0-11.0-34.0","","","","false","","","","","","","","","","555.6000000238419","","312.7000000476837","","2","0","arrowright","1","arrowleft","[0.675,0.325,0.85,0.15]","","",""
"sailing-trial","72","642381","0.0-11.0-35.0","","","","false","","","","","","","","","","null","","990.7000000476837","","2","1","null","null","arrowup","[0.675,0.325,0.85,0.15]","","",""
"sailing-trial","73","647227","0.0-11.0-36.0","","","","false","","","","","","","","","","1313.7000000476837","","534.5","","0","1","arrowleft","0","arrowleft","[0.675,0.325,0.85,0.15]","","",""
"sailing-trial","74","650189","0.0-11.0-37.0","","","","false","","","","","","","","","","null","","879.2999999523163","","0","1","null","null","arrowup","[0.675,0.325,0.85,0.15]","","",""
"sailing-trial","75","654355","0.0-11.0-38.0","","","","false","","","","","","","","","","1137.5","","13.200000047683716","","0","1","arrowleft","0","arrowleft","[0.675,0.325,0.85,0.15]","","",""
"sailing-trial","76","657684","0.0-11.0-39.0","","","","false","","","","","","","","","","null","","1439.2000000476837","","0","1","null","null","arrowup","[0.675,0.325,0.85,0.15]","","",""
"sailing-trial","77","661779","0.0-11.0-40.0","","","","false","","","","","","","","","","617.3999999761581","","334.40000009536743","","0","1","arrowleft","0","arrowleft","[0.675,0.325,0.85,0.15]","","",""
"sailing-trial","78","664432","0.0-11.0-41.0","","","","false","","","","","","","","","","null","","1164.2000000476837","","3","0","null","null","arrowup","[0.675,0.325,0.85,0.15]","","",""
"sailing-trial","79","668960","0.0-11.0-42.0","","","","false","","","","","","","","","","1171.3000000715256","","485","","0","0","arrowleft","0","arrowleft","[0.675,0.325,0.85,0.15]","","",""
"sailing-trial","80","671375","0.0-11.0-43.0","","","","false","","","","","","","","","","null","","730.0999999046326","","3","0","null","null","arrowup","[0.675,0.325,0.85,0.15]","","",""
"sailing-trial","81","675303","0.0-11.0-44.0","","","","false","","","","","","","","","","610","","274.7000000476837","","2","1","arrowright","1","arrowleft","[0.675,0.325,0.85,0.15]","","",""
"sailing-trial","82","678256","0.0-11.0-45.0","","","","false","","","","","","","","","","null","","1535.1999999284744","","1","0","null","null","arrowup","[0.675,0.325,0.85,0.15]","","",""
"sailing-trial","83","682169","0.0-11.0-46.0","","","","false","","","","","","","","","","1046","","267.10000002384186","","1","0","arrowleft","0","arrowright","[0.675,0.325,0.85,0.15]","","",""
"sailing-trial","84","685275","0.0-11.0-47.0","","","","false","","","","","","","","","","null","","1128.6000000238419","","1","1","null","null","arrowup","[0.675,0.325,0.85,0.15]","","",""
"sailing-trial","85","689639","0.0-11.0-48.0","","","","false","","","","","","","","","","760.1999999284744","","280.60000002384186","","0","1","arrowleft","0","arrowleft","[0.675,0.325,0.85,0.15]","","",""
"sailing-trial","86","693983","0.0-11.0-49.0","","","","false","","","","","","","","","","null","","1118.2000000476837","","3","1","null","null","arrowup","[0.675,0.325,0.85,0.15]","","",""
"sailing-trial","87","698335","0.0-11.0-50.0","","","","false","","","","","","","","","","1267.1000000238419","","462.1999999284744","","0","0","arrowleft","0","arrowleft","[0.675,0.325,0.85,0.15]","","",""
"sailing-trial","88","701112","0.0-11.0-51.0","","","","false","","","","","","","","","","null","","948.3999999761581","","3","1","null","null","arrowup","[0.675,0.325,0.85,0.15]","","",""
"sailing-trial","89","705757","0.0-11.0-52.0","","","","false","","","","","","","","","","1016","","299.5","","3","1","arrowright","1","arrowright","[0.85,0.15,0.675,0.325]","","",""
"sailing-trial","90","708684","0.0-11.0-53.0","","","","false","","","","","","","","","","null","","796.7000000476837","","1","0","null","null","arrowup","[0.85,0.15,0.675,0.325]","","",""
"sailing-trial","91","712818","0.0-11.0-54.0","","","","false","","","","","","","","","","797.2999999523163","","405.60000002384186","","3","1","arrowright","1","arrowright","[0.85,0.15,0.675,0.325]","","",""
"sailing-trial","92","715357","0.0-11.0-55.0","","","","false","","","","","","","","","","null","","854.1999999284744","","1","0","null","null","arrowup","[0.85,0.15,0.675,0.325]","","",""
"sailing-trial","93","719768","0.0-11.0-56.0","","","","false","","","","","","","","","","1061.5","","51.90000009536743","","3","0","arrowright","1","arrowright","[0.85,0.15,0.675,0.325]","","",""
"sailing-trial","94","722666","0.0-11.0-57.0","","","","false","","","","","","","","","","null","","901.3999999761581","","1","0","null","null","arrowup","[0.85,0.15,0.675,0.325]","","",""
"sailing-trial","95","726239","0.0-11.0-58.0","","","","false","","","","","","","","","","799.8999999761581","","26.5","","0","1","arrowleft","0","arrowleft","[0.85,0.15,0.675,0.325]","","",""
"sailing-trial","96","728126","0.0-11.0-59.0","","","","false","","","","","","","","","","null","","465","","3","0","null","null","arrowup","[0.85,0.15,0.675,0.325]","","",""
"sailing-trial","97","731452","0.0-11.0-60.0","","","","false","","","","","","","","","","692.2000000476837","","265","","1","0","arrowleft","0","arrowright","[0.85,0.15,0.675,0.325]","","",""
"sailing-trial","98","734250","0.0-11.0-61.0","","","","false","","","","","","","","","","null","","868.1999999284744","","2","1","null","null","arrowup","[0.85,0.15,0.675,0.325]","","",""
"sailing-trial","99","738112","0.0-11.0-62.0","","","","false","","","","","","","","","","486.1999999284744","","453.7000000476837","","2","1","arrowright","1","arrowleft","[0.85,0.15,0.675,0.325]","","",""
"sailing-trial","100","740810","0.0-11.0-63.0","","","","false","","","","","","","","","","null","","988.2000000476837","","2","0","null","null","arrowup","[0.85,0.15,0.675,0.325]","","",""
"sailing-trial","101","744127","0.0-11.0-64.0","","","","false","","","","","","","","","","731.9000000953674","","160.5","","3","0","arrowright","1","arrowright","[0.85,0.15,0.675,0.325]","","",""
"sailing-trial","102","747803","0.0-11.0-65.0","","","","false","","","","","","","","","","null","","1076.5","","0","1","null","null","arrowup","[0.85,0.15,0.675,0.325]","","",""
"sailing-trial","103","753467","0.0-11.0-66.0","","","","false","","","","","","","","","","1986.1000000238419","","516","","0","1","arrowleft","0","arrowleft","[0.85,0.15,0.675,0.325]","","",""
"sailing-trial","104","757428","0.0-11.0-67.0","","","","false","","","","","","","","","","null","","1592.8999999761581","","2","1","null","null","arrowup","[0.85,0.15,0.675,0.325]","","",""
"sailing-trial","105","761986","0.0-11.0-68.0","","","","false","","","","","","","","","","1363.6000000238419","","584.6000000238419","","3","0","arrowright","1","arrowright","[0.675,0.325,0.85,0.15]","","",""
"sailing-trial","106","765379","0.0-11.0-69.0","","","","false","","","","","","","","","","null","","1401.6999999284744","","3","0","null","null","arrowup","[0.675,0.325,0.85,0.15]","","",""
"sailing-trial","107","768806","0.0-11.0-70.0","","","","false","","","","","","","","","","556.6000000238419","","390.59999990463257","","1","0","arrowleft","0","arrowright","[0.675,0.325,0.85,0.15]","","",""
"sailing-trial","108","771699","0.0-11.0-71.0","","","","false","","","","","","","","","","null","","1055.5999999046326","","3","0","null","null","arrowup","[0.675,0.325,0.85,0.15]","","",""
"sailing-trial","109","775946","0.0-11.0-72.0","","","","false","","","","","","","","","","562.9000000953674","","7","","0","1","arrowleft","0","arrowleft","[0.675,0.325,0.85,0.15]","","",""
"sailing-trial","110","780159","0.0-11.0-73.0","","","","false","","","","","","","","","","null","","1839.4000000953674","","1","1","null","null","arrowup","[0.675,0.325,0.85,0.15]","","",""
"sailing-trial","111","784588","0.0-11.0-74.0","","","","false","","","","","","","","","","846.1999999284744","","123.69999992847443","","2","1","arrowright","1","arrowleft","[0.675,0.325,0.85,0.15]","","",""
"sailing-trial","112","787868","0.0-11.0-75.0","","","","false","","","","","","","","","","null","","1035.2000000476837","","1","0","null","null","arrowup","[0.675,0.325,0.85,0.15]","","",""
"sailing-trial","113","792565","0.0-11.0-76.0","","","","false","","","","","","","","","","1083.8000000715256","","19.100000023841858","","0","1","arrowleft","0","arrowleft","[0.675,0.325,0.85,0.15]","","",""
"sailing-trial","114","797206","0.0-11.0-77.0","","","","false","","","","","","","","","","null","","1623.6000000238419","","1","0","null","null","arrowup","[0.675,0.325,0.85,0.15]","","",""
"sailing-trial","115","802124","0.0-11.0-78.0","","","","false","","","","","","","","","","979.1000000238419","","110","","0","1","arrowleft","0","arrowleft","[0.675,0.325,0.85,0.15]","","",""
"sailing-trial","116","805704","0.0-11.0-79.0","","","","false","","","","","","","","","","null","","945.1000000238419","","0","1","null","null","arrowup","[0.675,0.325,0.85,0.15]","","",""
"sailing-trial","117","810183","0.0-11.0-80.0","","","","false","","","","","","","","","","658.7000000476837","","660.7999999523163","","2","1","arrowright","1","arrowleft","[0.675,0.325,0.85,0.15]","","",""
"sailing-trial","118","813279","0.0-11.0-81.0","","","","false","","","","","","","","","","null","","1279.6999999284744","","1","0","null","null","arrowup","[0.675,0.325,0.85,0.15]","","",""
"sailing-trial","119","818060","0.0-11.0-82.0","","","","false","","","","","","","","","","1444.9000000953674","","153.30000007152557","","2","1","arrowright","1","arrowleft","[0.675,0.325,0.85,0.15]","","",""
"sailing-trial","120","822190","0.0-11.0-83.0","","","","false","","","","","","","","","","null","","1424.5999999046326","","1","1","null","null","arrowup","[0.675,0.325,0.85,0.15]","","",""
"sailing-trial","121","828485","0.0-11.0-84.0","","","","false","","","","","","","","","","1383.6000000238419","","2072.4000000953674","","0","1","arrowleft","0","arrowleft","[0.675,0.325,0.85,0.15]","","",""
"sailing-trial","122","834979","0.0-11.0-85.0","","","","false","","","","","","","","","","null","","1431.3999999761581","","0","1","null","null","arrowup","[0.675,0.325,0.85,0.15]","","",""
"sailing-trial","123","839441","0.0-11.0-86.0","","","","false","","","","","","","","","","1125.1999999284744","","382.7000000476837","","2","1","arrowright","1","arrowleft","[0.85,0.15,0.675,0.325]","","",""
"sailing-trial","124","841789","0.0-11.0-87.0","","","","false","","","","","","","","","","null","","442.2999999523163","","0","1","null","null","arrowup","[0.85,0.15,0.675,0.325]","","",""
"sailing-trial","125","845985","0.0-11.0-88.0","","","","false","","","","","","","","","","462.7000000476837","","443.5","","2","1","arrowright","1","arrowleft","[0.85,0.15,0.675,0.325]","","",""
"sailing-trial","126","850965","0.0-11.0-89.0","","","","false","","","","","","","","","","null","","2272.100000023842","","1","1","null","null","arrowup","[0.85,0.15,0.675,0.325]","","",""
"sailing-trial","127","856376","0.0-11.0-90.0","","","","false","","","","","","","","","","1402","","526.7000000476837","","2","1","arrowright","1","arrowleft","[0.85,0.15,0.675,0.325]","","",""
"sailing-trial","128","859226","0.0-11.0-91.0","","","","false","","","","","","","","","","null","","890.2000000476837","","2","1","null","null","arrowup","[0.85,0.15,0.675,0.325]","","",""
"sailing-trial","129","863056","0.0-11.0-92.0","","","","false","","","","","","","","","","605.8000000715256","","776.8999999761581","","2","0","arrowright","1","arrowleft","[0.85,0.15,0.675,0.325]","","",""
"sailing-trial","130","865427","0.0-11.0-93.0","","","","false","","","","","","","","","","null","","1033.1999999284744","","2","0","null","null","arrowup","[0.85,0.15,0.675,0.325]","","",""
"sailing-trial","131","870137","0.0-11.0-94.0","","","","false","","","","","","","","","","1225.6999999284744","","1021.6999999284744","","2","0","arrowright","1","arrowleft","[0.85,0.15,0.675,0.325]","","",""
"sailing-trial","132","872847","0.0-11.0-95.0","","","","false","","","","","","","","","","null","","945.5","","0","1","null","null","arrowup","[0.85,0.15,0.675,0.325]","","",""
"sailing-trial","133","876793","0.0-11.0-96.0","","","","false","","","","","","","","","","452.09999990463257","","424.3000000715256","","0","1","arrowleft","0","arrowleft","[0.85,0.15,0.675,0.325]","","",""
"sailing-trial","134","879723","0.0-11.0-97.0","","","","false","","","","","","","","","","null","","988.3999999761581","","0","1","null","null","arrowup","[0.85,0.15,0.675,0.325]","","",""
"sailing-trial","135","882919","0.0-11.0-98.0","","","","false","","","","","","","","","","440.40000009536743","","530.7999999523163","","0","0","arrowleft","0","arrowleft","[0.85,0.15,0.675,0.325]","","",""
"sailing-trial","136","886567","0.0-11.0-99.0","","","","false","","","","","","","","","","null","","863.5","","0","1","null","null","arrowup","[0.85,0.15,0.675,0.325]","","",""
"sailing-trial","137","892318","0.0-11.0-100.0","","","","false","","","","","","","","","","836.3999999761581","","1296.3999999761581","","3","0","arrowright","1","arrowright","[0.85,0.15,0.675,0.325]","","",""
"sailing-trial","138","896664","0.0-11.0-101.0","","","","false","","","","","","","","","","null","","1324.5","","2","0","null","null","arrowup","[0.85,0.15,0.675,0.325]","","",""
"sailing-trial","139","901078","0.0-11.0-102.0","","","","false","","","","","","","","","","1455.7999999523163","","308.60000002384186","","2","0","arrowright","1","arrowleft","[0.325,0.675,0.15,0.85]","","",""
"sailing-trial","140","904068","0.0-11.0-103.0","","","","false","","","","","","","","","","null","","911.1999999284744","","0","1","null","null","arrowup","[0.325,0.675,0.15,0.85]","","",""
"sailing-trial","141","908017","0.0-11.0-104.0","","","","false","","","","","","","","","","525.7000000476837","","95.60000002384186","","1","1","arrowleft","0","arrowright","[0.325,0.675,0.15,0.85]","","",""
"sailing-trial","142","911513","0.0-11.0-105.0","","","","false","","","","","","","","","","null","","949.3999999761581","","1","1","null","null","arrowup","[0.325,0.675,0.15,0.85]","","",""
"sailing-trial","143","915109","0.0-11.0-106.0","","","","false","","","","","","","","","","984.5","","92.60000002384186","","0","0","arrowleft","0","arrowleft","[0.325,0.675,0.15,0.85]","","",""
"sailing-trial","144","918063","0.0-11.0-107.0","","","","false","","","","","","","","","","null","","836.1999999284744","","0","0","null","null","arrowup","[0.325,0.675,0.15,0.85]","","",""
"sailing-trial","145","922824","0.0-11.0-108.0","","","","false","","","","","","","","","","1327.3999999761581","","686.2999999523163","","2","0","arrowright","1","arrowleft","[0.325,0.675,0.15,0.85]","","",""
"sailing-trial","146","925285","0.0-11.0-109.0","","","","false","","","","","","","","","","null","","1067.7999999523163","","0","0","null","null","arrowup","[0.325,0.675,0.15,0.85]","","",""
"sailing-trial","147","930629","0.0-11.0-110.0","","","","false","","","","","","","","","","1158.3999999761581","","389.5","","1","1","arrowleft","0","arrowright","[0.325,0.675,0.15,0.85]","","",""
"sailing-trial","148","932563","0.0-11.0-111.0","","","","false","","","","","","","","","","null","","534.3999999761581","","2","0","null","null","arrowup","[0.325,0.675,0.15,0.85]","","",""
"sailing-trial","149","936528","0.0-11.0-112.0","","","","false","","","","","","","","","","895.7999999523163","","547.5","","2","0","arrowright","1","arrowleft","[0.325,0.675,0.15,0.85]","","",""
"sailing-trial","150","939321","0.0-11.0-113.0","","","","false","","","","","","","","","","null","","586.7999999523163","","3","1","null","null","arrowup","[0.325,0.675,0.15,0.85]","","",""
"sailing-trial","151","942851","0.0-11.0-114.0","","","","false","","","","","","","","","","591.1000000238419","","208.89999997615814","","3","1","arrowright","1","arrowright","[0.325,0.675,0.15,0.85]","","",""
"sailing-trial","152","946264","0.0-11.0-115.0","","","","false","","","","","","","","","","null","","1163.8999999761581","","3","1","null","null","arrowup","[0.325,0.675,0.15,0.85]","","",""
"sailing-trial","153","949951","0.0-11.0-116.0","","","","false","","","","","","","","","","547","","437.7999999523163","","0","0","arrowleft","0","arrowleft","[0.325,0.675,0.15,0.85]","","",""
"sailing-trial","154","953293","0.0-11.0-117.0","","","","false","","","","","","","","","","null","","1082.5","","0","1","null","null","arrowup","[0.325,0.675,0.15,0.85]","","",""
"sailing-trial","155","957438","0.0-11.0-118.0","","","","false","","","","","","","","","","571.2000000476837","","315.2999999523163","","1","1","arrowleft","0","arrowright","[0.15,0.85,0.325,0.675]","","",""
"sailing-trial","156","959523","0.0-11.0-119.0","","","","false","","","","","","","","","","null","","971.5","","0","0","null","null","arrowup","[0.15,0.85,0.325,0.675]","","",""
"sailing-trial","157","963991","0.0-11.0-120.0","","","","false","","","","","","","","","","1225.8000000715256","","628.8000000715256","","0","0","arrowleft","0","arrowleft","[0.15,0.85,0.325,0.675]","","",""
"sailing-trial","158","969096","0.0-11.0-121.0","","","","false","","","","","","","","","","null","","982.7999999523163","","3","1","null","null","arrowup","[0.15,0.85,0.325,0.675]","","",""
"sailing-trial","159","973174","0.0-11.0-122.0","","","","false","","","","","","","","","","431.6999999284744","","483.7999999523163","","3","1","arrowright","1","arrowright","[0.15,0.85,0.325,0.675]","","",""
"sailing-trial","160","976372","0.0-11.0-123.0","","","","false","","","","","","","","","","null","","952.8000000715256","","1","1","null","null","arrowup","[0.15,0.85,0.325,0.675]","","",""
"sailing-trial","161","980304","0.0-11.0-124.0","","","","false","","","","","","","","","","671.3999999761581","","211.60000002384186","","0","0","arrowleft","0","arrowleft","[0.15,0.85,0.325,0.675]","","",""
"sailing-trial","162","982648","0.0-11.0-125.0","","","","false","","","","","","","","","","null","","953.5","","0","0","null","null","arrowup","[0.15,0.85,0.325,0.675]","","",""
"sailing-trial","163","988330","0.0-11.0-126.0","","","","false","","","","","","","","","","1399","","1287","","2","1","arrowright","1","arrowleft","[0.15,0.85,0.325,0.675]","","",""
"sailing-trial","164","991241","0.0-11.0-127.0","","","","false","","","","","","","","","","null","","1013.8999999761581","","1","1","null","null","arrowup","[0.15,0.85,0.325,0.675]","","",""
"sailing-trial","165","996686","0.0-11.0-128.0","","","","false","","","","","","","","","","1360.6999999284744","","1080.8000000715256","","1","1","arrowleft","0","arrowright","[0.15,0.85,0.325,0.675]","","",""
"sailing-trial","166","1000451","0.0-11.0-129.0","","","","false","","","","","","","","","","null","","1270.5","","3","1","null","null","arrowup","[0.15,0.85,0.325,0.675]","","",""
"sailing-trial","167","1004557","0.0-11.0-130.0","","","","false","","","","","","","","","","1002.8999999761581","","594.7000000476837","","3","0","arrowright","1","arrowright","[0.15,0.85,0.325,0.675]","","",""
"sailing-trial","168","1007817","0.0-11.0-131.0","","","","false","","","","","","","","","","null","","1320","","0","0","null","null","arrowup","[0.15,0.85,0.325,0.675]","","",""
"sailing-trial","169","1012492","0.0-11.0-132.0","","","","false","","","","","","","","","","1060.1000000238419","","488.89999997615814","","1","1","arrowleft","0","arrowright","[0.15,0.85,0.325,0.675]","","",""
"sailing-trial","170","1015819","0.0-11.0-133.0","","","","false","","","","","","","","","","null","","1193.3999999761581","","3","1","null","null","arrowup","[0.15,0.85,0.325,0.675]","","",""
"sailing-trial","171","1019402","0.0-11.0-134.0","","","","false","","","","","","","","","","566.2000000476837","","353.3000000715256","","0","0","arrowleft","0","arrowleft","[0.15,0.85,0.325,0.675]","","",""
"sailing-trial","172","1022876","0.0-11.0-135.0","","","","false","","","","","","","","","","null","","1997.9000000953674","","0","0","null","null","arrowup","[0.15,0.85,0.325,0.675]","","",""
"sailing-trial","173","1026697","0.0-11.0-136.0","","","","false","","","","","","","","","","957.3999999761581","","498.5","","2","0","arrowright","1","arrowleft","[0.15,0.85,0.325,0.675]","","",""
"sailing-trial","174","1031256","0.0-11.0-137.0","","","","false","","","","","","","","","","null","","1204","","1","1","null","null","arrowup","[0.15,0.85,0.325,0.675]","","",""
"sailing-trial","175","1035669","0.0-11.0-138.0","","","","false","","","","","","","","","","622.6000000238419","","389.39999997615814","","3","1","arrowright","1","arrowright","[0.325,0.675,0.15,0.85]","","",""
"sailing-trial","176","1039183","0.0-11.0-139.0","","","","false","","","","","","","","","","null","","1349.8999999761581","","3","1","null","null","arrowup","[0.325,0.675,0.15,0.85]","","",""
"sailing-trial","177","1044775","0.0-11.0-140.0","","","","false","","","","","","","","","","2407.6999999284744","","118.20000004768372","","2","0","arrowright","1","arrowleft","[0.325,0.675,0.15,0.85]","","",""
"sailing-trial","178","1048545","0.0-11.0-141.0","","","","false","","","","","","","","","","null","","1799.0999999046326","","0","0","null","null","arrowup","[0.325,0.675,0.15,0.85]","","",""
"sailing-trial","179","1052911","0.0-11.0-142.0","","","","false","","","","","","","","","","1158.8000000715256","","671.6000000238419","","2","0","arrowright","1","arrowleft","[0.325,0.675,0.15,0.85]","","",""
"sailing-trial","180","1055793","0.0-11.0-143.0","","","","false","","","","","","","","","","null","","1237.1000000238419","","2","0","null","null","arrowup","[0.325,0.675,0.15,0.85]","","",""
"sailing-trial","181","1060280","0.0-11.0-144.0","","","","false","","","","","","","","","","1093.1000000238419","","841.8999999761581","","0","0","arrowleft","0","arrowleft","[0.325,0.675,0.15,0.85]","","",""
"sailing-trial","182","1064460","0.0-11.0-145.0","","","","false","","","","","","","","","","null","","2022.9000000953674","","3","1","null","null","arrowup","[0.325,0.675,0.15,0.85]","","",""
"sailing-trial","183","1069295","0.0-11.0-146.0","","","","false","","","","","","","","","","1568.2999999523163","","772.5","","2","0","arrowright","1","arrowleft","[0.325,0.675,0.15,0.85]","","",""
"sailing-trial","184","1074087","0.0-11.0-147.0","","","","false","","","","","","","","","","null","","2399.2000000476837","","1","1","null","null","arrowup","[0.325,0.675,0.15,0.85]","","",""
"sailing-trial","185","1078266","0.0-11.0-148.0","","","","false","","","","","","","","","","1092.7000000476837","","67","","1","1","arrowleft","0","arrowright","[0.325,0.675,0.15,0.85]","","",""
"sailing-trial","186","1081245","0.0-11.0-149.0","","","","false","","","","","","","","","","null","","1000.1999999284744","","1","0","null","null","arrowup","[0.325,0.675,0.15,0.85]","","",""
"sailing-trial","187","1084929","0.0-11.0-150.0","","","","false","","","","","","","","","","961.1000000238419","","312.39999997615814","","2","0","arrowright","1","arrowleft","[0.325,0.675,0.15,0.85]","","",""
"sailing-trial","188","1088207","0.0-11.0-151.0","","","","false","","","","","","","","","","null","","1153.2000000476837","","1","1","null","null","arrowup","[0.325,0.675,0.15,0.85]","","",""
"sailing-trial","189","1092120","0.0-11.0-152.0","","","","false","","","","","","","","","","812.8999999761581","","242","","1","1","arrowleft","0","arrowright","[0.325,0.675,0.15,0.85]","","",""
"sailing-trial","190","1095090","0.0-11.0-153.0","","","","false","","","","","","","","","","null","","893","","2","0","null","null","arrowup","[0.325,0.675,0.15,0.85]","","",""
"sailing-trial","191","1098814","0.0-11.0-154.0","","","","false","","","","","","","","","","614.1000000238419","","8.399999976158142","","1","1","arrowleft","0","arrowright","[0.15,0.85,0.325,0.675]","","",""
"sailing-trial","192","1102214","0.0-11.0-155.0","","","","false","","","","","","","","","","null","","2044.8000000715256","","2","0","null","null","arrowup","[0.15,0.85,0.325,0.675]","","",""
"sailing-trial","193","1105816","0.0-11.0-156.0","","","","false","","","","","","","","","","923.0999999046326","","0.8999999761581421","","1","0","arrowleft","0","arrowright","[0.15,0.85,0.325,0.675]","","",""
"sailing-trial","194","1108316","0.0-11.0-157.0","","","","false","","","","","","","","","","null","","886.2000000476837","","0","0","null","null","arrowup","[0.15,0.85,0.325,0.675]","","",""
"sailing-trial","195","1112744","0.0-11.0-158.0","","","","false","","","","","","","","","","950.1000000238419","","279.1999999284744","","2","0","arrowright","1","arrowleft","[0.15,0.85,0.325,0.675]","","",""
"sailing-trial","196","1117482","0.0-11.0-159.0","","","","false","","","","","","","","","","null","","1871.6000000238419","","1","1","null","null","arrowup","[0.15,0.85,0.325,0.675]","","",""
"sailing-trial","197","1122694","0.0-11.0-160.0","","","","false","","","","","","","","","","1923.1999999284744","","281.60000002384186","","1","1","arrowleft","0","arrowright","[0.15,0.85,0.325,0.675]","","",""
"sailing-trial","198","1130137","0.0-11.0-161.0","","","","false","","","","","","","","","","null","","3157.399999976158","","3","1","null","null","arrowup","[0.15,0.85,0.325,0.675]","","",""
"sailing-trial","199","1138999","0.0-11.0-162.0","","","","false","","","","","","","","","","4373","","404.6999999284744","","1","1","arrowleft","0","arrowright","[0.15,0.85,0.325,0.675]","","",""
"sailing-trial","200","1143576","0.0-11.0-163.0","","","","false","","","","","","","","","","null","","1881.1000000238419","","3","1","null","null","arrowup","[0.15,0.85,0.325,0.675]","","",""
"sailing-trial","201","1149887","0.0-11.0-164.0","","","","false","","","","","","","","","","1426.0999999046326","","135.10000002384186","","1","1","arrowleft","0","arrowright","[0.15,0.85,0.325,0.675]","","",""
"sailing-trial","202","1155665","0.0-11.0-165.0","","","","false","","","","","","","","","","null","","2834","","2","1","null","null","arrowup","[0.15,0.85,0.325,0.675]","","",""
"sailing-trial","203","1159504","0.0-11.0-166.0","","","","false","","","","","","","","","","770.8999999761581","","322.60000002384186","","2","0","arrowright","1","arrowleft","[0.15,0.85,0.325,0.675]","","",""
"sailing-trial","204","1164068","0.0-11.0-167.0","","","","false","","","","","","","","","","null","","2895.899999976158","","0","0","null","null","arrowup","[0.15,0.85,0.325,0.675]","","",""
"sailing-trial","205","1168070","0.0-11.0-168.0","","","","false","","","","","","","","","","922.6000000238419","","578.0999999046326","","3","0","arrowright","1","arrowright","[0.15,0.85,0.325,0.675]","","",""
"sailing-trial","206","1172320","0.0-11.0-169.0","","","","false","","","","","","","","","","null","","2072.7999999523163","","2","0","null","null","arrowup","[0.15,0.85,0.325,0.675]","","",""
"sailing-trial","207","1176799","0.0-11.0-170.0","","","","false","","","","","","","","","","1203.1000000238419","","483.1999999284744","","0","1","arrowleft","0","arrowleft","[0.85,0.15,0.675,0.325]","","",""
"sailing-trial","208","1180411","0.0-11.0-171.0","","","","false","","","","","","","","","","null","","1219.7000000476837","","2","1","null","null","arrowup","[0.85,0.15,0.675,0.325]","","",""
"sailing-trial","209","1186137","0.0-11.0-172.0","","","","false","","","","","","","","","","1922","","726.2000000476837","","0","1","arrowleft","0","arrowleft","[0.85,0.15,0.675,0.325]","","",""
"sailing-trial","210","1189785","0.0-11.0-173.0","","","","false","","","","","","","","","","null","","1297.2000000476837","","1","1","null","null","arrowup","[0.85,0.15,0.675,0.325]","","",""
"sailing-trial","211","1193583","0.0-11.0-174.0","","","","false","","","","","","","","","","874.3000000715256","","414.2000000476837","","0","0","arrowleft","0","arrowleft","[0.85,0.15,0.675,0.325]","","",""
"sailing-trial","212","1198012","0.0-11.0-175.0","","","","false","","","","","","","","","","null","","1590.4000000953674","","2","1","null","null","arrowup","[0.85,0.15,0.675,0.325]","","",""
"sailing-trial","213","1202088","0.0-11.0-176.0","","","","false","","","","","","","","","","1330.0999999046326","","91.30000007152557","","1","0","arrowleft","0","arrowright","[0.85,0.15,0.675,0.325]","","",""
"sailing-trial","214","1206373","0.0-11.0-177.0","","","","false","","","","","","","","","","null","","1463.6999999284744","","1","0","null","null","arrowup","[0.85,0.15,0.675,0.325]","","",""
"sailing-trial","215","1211900","0.0-11.0-178.0","","","","false","","","","","","","","","","907.5","","1124","","3","1","arrowright","1","arrowright","[0.85,0.15,0.675,0.325]","","",""
"sailing-trial","216","1214060","0.0-11.0-179.0","","","","false","","","","","","","","","","null","","930.7999999523163","","3","0","null","null","arrowup","[0.85,0.15,0.675,0.325]","","",""
"sailing-trial","217","1219476","0.0-11.0-180.0","","","","false","","","","","","","","","","1568.2999999523163","","1122.7000000476837","","0","1","arrowleft","0","arrowleft","[0.85,0.15,0.675,0.325]","","",""
"sailing-trial","218","1223406","0.0-11.0-181.0","","","","false","","","","","","","","","","null","","1405.1000000238419","","2","1","null","null","arrowup","[0.85,0.15,0.675,0.325]","","",""
"sailing-trial","219","1227985","0.0-11.0-182.0","","","","false","","","","","","","","","","1135.6000000238419","","531.2000000476837","","2","1","arrowright","1","arrowleft","[0.85,0.15,0.675,0.325]","","",""
"sailing-trial","220","1231883","0.0-11.0-183.0","","","","false","","","","","","","","","","null","","1959.5","","0","1","null","null","arrowup","[0.85,0.15,0.675,0.325]","","",""
"sailing-trial","221","1235728","0.0-11.0-184.0","","","","false","","","","","","","","","","499.5","","109","","0","1","arrowleft","0","arrowleft","[0.85,0.15,0.675,0.325]","","",""
"sailing-trial","222","1238729","0.0-11.0-185.0","","","","false","","","","","","","","","","null","","974.1000000238419","","1","0","null","null","arrowup","[0.85,0.15,0.675,0.325]","","",""
"sailing-trial","223","1242472","0.0-11.0-186.0","","","","false","","","","","","","","","","672.1999999284744","","140","","0","1","arrowleft","0","arrowleft","[0.85,0.15,0.675,0.325]","","",""
"sailing-trial","224","1245596","0.0-11.0-187.0","","","","false","","","","","","","","","","null","","1145.2000000476837","","3","0","null","null","arrowup","[0.85,0.15,0.675,0.325]","","",""
"sailing-trial","225","1250332","0.0-11.0-188.0","","","","false","","","","","","","","","","1151.3000000715256","","450.89999997615814","","2","1","arrowright","1","arrowleft","[0.675,0.325,0.85,0.15]","","",""
"sailing-trial","226","1253263","0.0-11.0-189.0","","","","false","","","","","","","","","","null","","1030.0999999046326","","2","1","null","null","arrowup","[0.675,0.325,0.85,0.15]","","",""
"sailing-trial","227","1256795","0.0-11.0-190.0","","","","false","","","","","","","","","","677.6000000238419","","23.800000071525574","","2","1","arrowright","1","arrowleft","[0.675,0.325,0.85,0.15]","","",""
"sailing-trial","228","1259624","0.0-11.0-191.0","","","","false","","","","","","","","","","null","","884.6000000238419","","1","1","null","null","arrowup","[0.675,0.325,0.85,0.15]","","",""
"sailing-trial","229","1264504","0.0-11.0-192.0","","","","false","","","","","","","","","","857.7000000476837","","1100.9000000953674","","2","1","arrowright","1","arrowleft","[0.675,0.325,0.85,0.15]","","",""
"sailing-trial","230","1266824","0.0-11.0-193.0","","","","false","","","","","","","","","","null","","859.8000000715256","","1","0","null","null","arrowup","[0.675,0.325,0.85,0.15]","","",""
"sailing-trial","231","1271197","0.0-11.0-194.0","","","","false","","","","","","","","","","1200.6999999284744","","40.299999952316284","","1","1","arrowleft","0","arrowright","[0.675,0.325,0.85,0.15]","","",""
"sailing-trial","232","1273460","0.0-11.0-195.0","","","","false","","","","","","","","","","null","","945.2999999523163","","0","0","null","null","arrowup","[0.675,0.325,0.85,0.15]","","",""
"sailing-trial","233","1277403","0.0-11.0-196.0","","","","false","","","","","","","","","","682.2000000476837","","423.40000009536743","","1","0","arrowleft","0","arrowright","[0.675,0.325,0.85,0.15]","","",""
"sailing-trial","234","1280498","0.0-11.0-197.0","","","","false","","","","","","","","","","null","","1692.8999999761581","","0","0","null","null","arrowup","[0.675,0.325,0.85,0.15]","","",""
"sailing-trial","235","1284331","0.0-11.0-198.0","","","","false","","","","","","","","","","1101.2999999523163","","253","","2","0","arrowright","1","arrowleft","[0.675,0.325,0.85,0.15]","","",""
"sailing-trial","236","1287455","0.0-11.0-199.0","","","","false","","","","","","","","","","null","","1481.2999999523163","","3","0","null","null","arrowup","[0.675,0.325,0.85,0.15]","","",""
"sailing-trial","237","1292346","0.0-11.0-200.0","","","","false","","","","","","","","","","1068.2000000476837","","873.8000000715256","","0","1","arrowleft","0","arrowleft","[0.675,0.325,0.85,0.15]","","",""
"sailing-trial","238","1295627","0.0-11.0-201.0","","","","false","","","","","","","","","","null","","1306.1000000238419","","2","1","null","null","arrowup","[0.675,0.325,0.85,0.15]","","",""
"sailing-trial","239","1300679","0.0-11.0-202.0","","","","false","","","","","","","","","","2052.7000000476837","","246.59999990463257","","1","0","arrowleft","0","arrowright","[0.675,0.325,0.85,0.15]","","",""
"sailing-trial","240","1304397","0.0-11.0-203.0","","","","false","","","","","","","","","","null","","1750.8999999761581","","1","0","null","null","arrowup","[0.675,0.325,0.85,0.15]","","",""
"sailing-trial","241","1312145","0.0-11.0-204.0","","","","false","","","","","","","","","","2155.2000000476837","","409.2000000476837","","2","1","arrowright","1","arrowleft","[0.15,0.85,0.325,0.675]","","",""
"sailing-trial","242","1316190","0.0-11.0-205.0","","","","false","","","","","","","","","","null","","1686.1000000238419","","0","0","null","null","arrowup","[0.15,0.85,0.325,0.675]","","",""
"sailing-trial","243","1321886","0.0-11.0-206.0","","","","false","","","","","","","","","","1905.2000000476837","","925.6999999284744","","1","1","arrowleft","0","arrowright","[0.15,0.85,0.325,0.675]","","",""
"sailing-trial","244","1326467","0.0-11.0-207.0","","","","false","","","","","","","","","","null","","2337.100000023842","","1","1","null","null","arrowup","[0.15,0.85,0.325,0.675]","","",""
"sailing-trial","245","1331104","0.0-11.0-208.0","","","","false","","","","","","","","","","1749.1999999284744","","432.6999999284744","","1","0","arrowleft","0","arrowright","[0.15,0.85,0.325,0.675]","","",""
"sailing-trial","246","1334075","0.0-11.0-209.0","","","","false","","","","","","","","","","null","","1040.6000000238419","","1","1","null","null","arrowup","[0.15,0.85,0.325,0.675]","","",""
"sailing-trial","247","1339393","0.0-11.0-210.0","","","","false","","","","","","","","","","707.2000000476837","","568.5","","1","0","arrowleft","0","arrowright","[0.15,0.85,0.325,0.675]","","",""
"sailing-trial","248","1343351","0.0-11.0-211.0","","","","false","","","","","","","","","","null","","1731.7999999523163","","3","1","null","null","arrowup","[0.15,0.85,0.325,0.675]","","",""
"sailing-trial","249","1347631","0.0-11.0-212.0","","","","false","","","","","","","","","","802.3999999761581","","499.2000000476837","","3","1","arrowright","1","arrowright","[0.15,0.85,0.325,0.675]","","",""
"sailing-trial","250","1352776","0.0-11.0-213.0","","","","false","","","","","","","","","","null","","2955.2999999523163","","3","1","null","null","arrowup","[0.15,0.85,0.325,0.675]","","",""
"sailing-trial","251","1357425","0.0-11.0-214.0","","","","false","","","","","","","","","","2229.7000000476837","","102.90000009536743","","0","0","arrowleft","0","arrowleft","[0.15,0.85,0.325,0.675]","","",""
"sailing-trial","252","1359703","0.0-11.0-215.0","","","","false","","","","","","","","","","null","","950.3999999761581","","0","0","null","null","arrowup","[0.15,0.85,0.325,0.675]","","",""
"sailing-trial","253","1364067","0.0-11.0-216.0","","","","false","","","","","","","","","","1219.7000000476837","","190.09999990463257","","1","1","arrowleft","0","arrowright","[0.15,0.85,0.325,0.675]","","",""
"sailing-trial","254","1365911","0.0-11.0-217.0","","","","false","","","","","","","","","","null","","104.60000002384186","","0","0","null","null","arrowup","[0.15,0.85,0.325,0.675]","","",""
"sailing-trial","255","1369307","0.0-11.0-218.0","","","","false","","","","","","","","","","581.3999999761581","","417.10000002384186","","2","0","arrowright","1","arrowleft","[0.15,0.85,0.325,0.675]","","",""
"sailing-trial","256","1371750","0.0-11.0-219.0","","","","false","","","","","","","","","","null","","1159.1000000238419","","2","0","null","null","arrowup","[0.15,0.85,0.325,0.675]","","",""
"sailing-trial","257","1375490","0.0-11.0-220.0","","","","false","","","","","","","","","","777.3000000715256","","97.10000002384186","","1","1","arrowleft","0","arrowright","[0.325,0.675,0.15,0.85]","","",""
"sailing-trial","258","1378838","0.0-11.0-221.0","","","","false","","","","","","","","","","null","","1415.7999999523163","","3","1","null","null","arrowup","[0.325,0.675,0.15,0.85]","","",""
"sailing-trial","259","1383016","0.0-11.0-222.0","","","","false","","","","","","","","","","1195.7999999523163","","79.29999995231628","","3","1","arrowright","1","arrowright","[0.325,0.675,0.15,0.85]","","",""
"sailing-trial","260","1386304","0.0-11.0-223.0","","","","false","","","","","","","","","","null","","1716.5","","2","0","null","null","arrowup","[0.325,0.675,0.15,0.85]","","",""
"sailing-trial","261","1390069","0.0-11.0-224.0","","","","false","","","","","","","","","","660.3999999761581","","430.6999999284744","","1","0","arrowleft","0","arrowright","[0.325,0.675,0.15,0.85]","","",""
"sailing-trial","262","1393092","0.0-11.0-225.0","","","","false","","","","","","","","","","null","","1245.8000000715256","","3","1","null","null","arrowup","[0.325,0.675,0.15,0.85]","","",""
"sailing-trial","263","1397011","0.0-11.0-226.0","","","","false","","","","","","","","","","647.2000000476837","","46.60000002384186","","3","1","arrowright","1","arrowright","[0.325,0.675,0.15,0.85]","","",""
"sailing-trial","264","1399758","0.0-11.0-227.0","","","","false","","","","","","","","","","null","","908.8000000715256","","2","0","null","null","arrowup","[0.325,0.675,0.15,0.85]","","",""
"sailing-trial","265","1404297","0.0-11.0-228.0","","","","false","","","","","","","","","","1029.1000000238419","","217.10000002384186","","1","1","arrowleft","0","arrowright","[0.325,0.675,0.15,0.85]","","",""
"sailing-trial","266","1407546","0.0-11.0-229.0","","","","false","","","","","","","","","","null","","858.2999999523163","","0","1","null","null","arrowup","[0.325,0.675,0.15,0.85]","","",""
"sailing-trial","267","1412920","0.0-11.0-230.0","","","","false","","","","","","","","","","1077.5","","405.5","","0","0","arrowleft","0","arrowleft","[0.325,0.675,0.15,0.85]","","",""
"sailing-trial","268","1415990","0.0-11.0-231.0","","","","false","","","","","","","","","","null","","944.3000000715256","","3","1","null","null","arrowup","[0.325,0.675,0.15,0.85]","","",""
"sailing-trial","269","1420122","0.0-11.0-232.0","","","","false","","","","","","","","","","1162.8999999761581","","193","","3","0","arrowright","1","arrowright","[0.325,0.675,0.15,0.85]","","",""
"sailing-trial","270","1423032","0.0-11.0-233.0","","","","false","","","","","","","","","","null","","1001.5999999046326","","1","1","null","null","arrowup","[0.325,0.675,0.15,0.85]","","",""
"sailing-trial","271","1429376","0.0-11.0-234.0","","","","false","","","","","","","","","","1382","","2028.0999999046326","","1","1","arrowleft","0","arrowright","[0.325,0.675,0.15,0.85]","","",""
"sailing-trial","272","1432794","0.0-11.0-235.0","","","","false","","","","","","","","","","null","","1717.8000000715256","","1","0","null","null","arrowup","[0.325,0.675,0.15,0.85]","","",""
"sailing-trial","273","1436688","0.0-11.0-236.0","","","","false","","","","","","","","","","921.7999999523163","","457.7999999523163","","0","0","arrowleft","0","arrowleft","[0.325,0.675,0.15,0.85]","","",""
"sailing-trial","274","1438918","0.0-11.0-237.0","","","","false","","","","","","","","","","null","","920","","0","0","null","null","arrowup","[0.325,0.675,0.15,0.85]","","",""
"sailing-trial","275","1442164","0.0-11.0-238.0","","","","false","","","","","","","","","","932.3999999761581","","100","","2","0","arrowright","1","arrowleft","[0.325,0.675,0.15,0.85]","","",""
"sailing-trial","276","1444416","0.0-11.0-239.0","","","","false","","","","","","","","","","null","","935.5","","2","0","null","null","arrowup","[0.325,0.675,0.15,0.85]","","",""
"sailing-trial","277","1448343","0.0-11.0-240.0","","","","false","","","","","","","","","","877.3000000715256","","82.60000002384186","","3","1","arrowright","1","arrowright","[0.325,0.675,0.15,0.85]","","",""
"sailing-trial","278","1451459","0.0-11.0-241.0","","","","false","","","","","","","","","","null","","1530.1999999284744","","1","0","null","null","arrowup","[0.325,0.675,0.15,0.85]","","",""
"sailing-trial","279","1456002","0.0-11.0-242.0","","","","false","","","","","","","","","","1430.8999999761581","","109.5","","1","1","arrowleft","0","arrowright","[0.85,0.15,0.675,0.325]","","",""
"sailing-trial","280","1458270","0.0-11.0-243.0","","","","false","","","","","","","","","","null","","952.1999999284744","","3","0","null","null","arrowup","[0.85,0.15,0.675,0.325]","","",""
"sailing-trial","281","1461402","0.0-11.0-244.0","","","","false","","","","","","","","","","573.8999999761581","","220.20000004768372","","1","0","arrowleft","0","arrowright","[0.85,0.15,0.675,0.325]","","",""
"sailing-trial","282","1463258","0.0-11.0-245.0","","","","false","","","","","","","","","","null","","544.3000000715256","","1","0","null","null","arrowup","[0.85,0.15,0.675,0.325]","","",""
"sailing-trial","283","1467442","0.0-11.0-246.0","","","","false","","","","","","","","","","918.6999999284744","","418.1999999284744","","0","0","arrowleft","0","arrowleft","[0.85,0.15,0.675,0.325]","","",""
"sailing-trial","284","1469998","0.0-11.0-247.0","","","","false","","","","","","","","","","null","","970.5","","0","0","null","null","arrowup","[0.85,0.15,0.675,0.325]","","",""
"sailing-trial","285","1473837","0.0-11.0-248.0","","","","false","","","","","","","","","","699.7999999523163","","89.59999990463257","","2","1","arrowright","1","arrowleft","[0.85,0.15,0.675,0.325]","","",""
"sailing-trial","286","1476801","0.0-11.0-249.0","","","","false","","","","","","","","","","null","","913.6000000238419","","2","1","null","null","arrowup","[0.85,0.15,0.675,0.325]","","",""
"sailing-trial","287","1482381","0.0-11.0-250.0","","","","false","","","","","","","","","","1662.8000000715256","","462.89999997615814","","3","1","arrowright","1","arrowright","[0.85,0.15,0.675,0.325]","","",""
"sailing-trial","288","1484355","0.0-11.0-251.0","","","","false","","","","","","","","","","null","","585.1000000238419","","2","0","null","null","arrowup","[0.85,0.15,0.675,0.325]","","",""
"sailing-trial","289","1488308","0.0-11.0-252.0","","","","false","","","","","","","","","","705.9000000953674","","408.60000002384186","","0","1","arrowleft","0","arrowleft","[0.85,0.15,0.675,0.325]","","",""
"sailing-trial","290","1490839","0.0-11.0-253.0","","","","false","","","","","","","","","","null","","693.2000000476837","","2","1","null","null","arrowup","[0.85,0.15,0.675,0.325]","","",""
"sailing-trial","291","1494385","0.0-11.0-254.0","","","","false","","","","","","","","","","450.59999990463257","","235.60000002384186","","2","1","arrowright","1","arrowleft","[0.85,0.15,0.675,0.325]","","",""
"sailing-trial","292","1497736","0.0-11.0-255.0","","","","false","","","","","","","","","","null","","1084.5","","3","1","null","null","arrowup","[0.85,0.15,0.675,0.325]","","",""
"sailing-trial","293","1502181","0.0-11.0-256.0","","","","false","","","","","","","","","","809.6000000238419","","40.699999928474426","","0","1","arrowleft","0","arrowleft","[0.85,0.15,0.675,0.325]","","",""
"sailing-trial","294","1505542","0.0-11.0-257.0","","","","false","","","","","","","","","","null","","919.2000000476837","","0","1","null","null","arrowup","[0.85,0.15,0.675,0.325]","","",""
"sailing-trial","295","1511537","0.0-11.0-258.0","","","","false","","","","","","","","","","1396.7999999523163","","1241","","0","1","arrowleft","0","arrowleft","[0.675,0.325,0.85,0.15]","","",""
"sailing-trial","296","1514351","0.0-11.0-259.0","","","","false","","","","","","","","","","null","","946.8000000715256","","1","1","null","null","arrowup","[0.675,0.325,0.85,0.15]","","",""
"sailing-trial","297","1519373","0.0-11.0-260.0","","","","false","","","","","","","","","","1507.2999999523163","","471.6999999284744","","0","1","arrowleft","0","arrowleft","[0.675,0.325,0.85,0.15]","","",""
"sailing-trial","298","1522555","0.0-11.0-261.0","","","","false","","","","","","","","","","null","","1812","","1","0","null","null","arrowup","[0.675,0.325,0.85,0.15]","","",""
"sailing-trial","299","1526857","0.0-11.0-262.0","","","","false","","","","","","","","","","824.7999999523163","","50.200000047683716","","2","1","arrowright","1","arrowleft","[0.675,0.325,0.85,0.15]","","",""
"sailing-trial","300","1530623","0.0-11.0-263.0","","","","false","","","","","","","","","","null","","1834.8999999761581","","2","1","null","null","arrowup","[0.675,0.325,0.85,0.15]","","",""
"sailing-trial","301","1535385","0.0-11.0-264.0","","","","false","","","","","","","","","","1028.7999999523163","","189.20000004768372","","0","1","arrowleft","0","arrowleft","[0.675,0.325,0.85,0.15]","","",""
"sailing-trial","302","1538833","0.0-11.0-265.0","","","","false","","","","","","","","","","null","","1362.3999999761581","","1","1","null","null","arrowup","[0.675,0.325,0.85,0.15]","","",""
"sailing-trial","303","1542797","0.0-11.0-266.0","","","","false","","","","","","","","","","590.6000000238419","","49.5","","2","1","arrowright","1","arrowleft","[0.675,0.325,0.85,0.15]","","",""
"sailing-trial","304","1545310","0.0-11.0-267.0","","","","false","","","","","","","","","","null","","905.2999999523163","","0","0","null","null","arrowup","[0.675,0.325,0.85,0.15]","","",""
"sailing-trial","305","1549400","0.0-11.0-268.0","","","","false","","","","","","","","","","991.5999999046326","","59.89999997615814","","1","0","arrowleft","0","arrowright","[0.675,0.325,0.85,0.15]","","",""
"sailing-trial","306","1553404","0.0-11.0-269.0","","","","false","","","","","","","","","","null","","2257.8000000715256","","3","0","null","null","arrowup","[0.675,0.325,0.85,0.15]","","",""
"sailing-trial","307","1557697","0.0-11.0-270.0","","","","false","","","","","","","","","","1782.8000000715256","","104.60000002384186","","1","0","arrowleft","0","arrowright","[0.675,0.325,0.85,0.15]","","",""
"sailing-trial","308","1560485","0.0-11.0-271.0","","","","false","","","","","","","","","","null","","1171.0999999046326","","3","0","null","null","arrowup","[0.675,0.325,0.85,0.15]","","",""
"sailing-trial","309","1564538","0.0-11.0-272.0","","","","false","","","","","","","","","","1023.1999999284744","","354.6999999284744","","0","0","arrowleft","0","arrowleft","[0.675,0.325,0.85,0.15]","","",""
"sailing-trial","310","1566992","0.0-11.0-273.0","","","","false","","","","","","","","","","null","","966.2000000476837","","1","0","null","null","arrowup","[0.675,0.325,0.85,0.15]","","",""
"sailing-trial","311","1572336","0.0-11.0-274.0","","","","false","","","","","","","","","","884.4000000953674","","388.90000009536743","","2","1","arrowright","1","arrowleft","[0.675,0.325,0.85,0.15]","","",""
"sailing-trial","312","1575972","0.0-11.0-275.0","","","","false","","","","","","","","","","null","","1001.7999999523163","","0","1","null","null","arrowup","[0.675,0.325,0.85,0.15]","","",""
"sailing-trial","313","1581498","0.0-11.0-276.0","","","","false","","","","","","","","","","837.7000000476837","","657.6000000238419","","3","0","arrowright","1","arrowright","[0.675,0.325,0.85,0.15]","","",""
"sailing-trial","314","1584474","0.0-11.0-277.0","","","","false","","","","","","","","","","null","","841","","0","1","null","null","arrowup","[0.675,0.325,0.85,0.15]","","",""
"sailing-trial","315","1588170","0.0-11.0-278.0","","","","false","","","","","","","","","","853.2999999523163","","466.39999997615814","","1","0","arrowleft","0","arrowright","[0.675,0.325,0.85,0.15]","","",""
"sailing-trial","316","1591119","0.0-11.0-279.0","","","","false","","","","","","","","","","null","","944.1000000238419","","2","1","null","null","arrowup","[0.675,0.325,0.85,0.15]","","",""
"sailing-trial","317","1595449","0.0-11.0-280.0","","","","false","","","","","","","","","","1441.8999999761581","","11","","0","1","arrowleft","0","arrowleft","[0.675,0.325,0.85,0.15]","","",""
"sailing-trial","318","1599336","0.0-11.0-281.0","","","","false","","","","","","","","","","null","","2438.899999976158","","2","0","null","null","arrowup","[0.675,0.325,0.85,0.15]","","",""
"sailing-trial","319","1603691","0.0-11.0-282.0","","","","false","","","","","","","","","","983.6000000238419","","461.59999990463257","","2","1","arrowright","1","arrowleft","[0.85,0.15,0.675,0.325]","","",""
"sailing-trial","320","1606022","0.0-11.0-283.0","","","","false","","","","","","","","","","null","","873.5","","2","0","null","null","arrowup","[0.85,0.15,0.675,0.325]","","",""
"sailing-trial","321","1611871","0.0-11.0-284.0","","","","false","","","","","","","","","","1325.6999999284744","","471.10000002384186","","3","0","arrowright","1","arrowright","[0.85,0.15,0.675,0.325]","","",""
"sailing-trial","322","1615597","0.0-11.0-285.0","","","","false","","","","","","","","","","null","","1515","","0","1","null","null","arrowup","[0.85,0.15,0.675,0.325]","","",""
"sailing-trial","323","1621358","0.0-11.0-286.0","","","","false","","","","","","","","","","1847.7999999523163","","539.3999999761581","","0","1","arrowleft","0","arrowleft","[0.85,0.15,0.675,0.325]","","",""
"sailing-trial","324","1624724","0.0-11.0-287.0","","","","false","","","","","","","","","","null","","850.1999999284744","","0","1","null","null","arrowup","[0.85,0.15,0.675,0.325]","","",""
"sailing-trial","325","1628468","0.0-11.0-288.0","","","","false","","","","","","","","","","966.1999999284744","","18.399999976158142","","2","0","arrowright","1","arrowleft","[0.85,0.15,0.675,0.325]","","",""
"sailing-trial","326","1630873","0.0-11.0-289.0","","","","false","","","","","","","","","","null","","777.3000000715256","","2","0","null","null","arrowup","[0.85,0.15,0.675,0.325]","","",""
"sailing-trial","327","1635197","0.0-11.0-290.0","","","","false","","","","","","","","","","668.3000000715256","","568.5","","3","1","arrowright","1","arrowright","[0.85,0.15,0.675,0.325]","","",""
"sailing-trial","328","1637862","0.0-11.0-291.0","","","","false","","","","","","","","","","null","","478","","0","1","null","null","arrowup","[0.85,0.15,0.675,0.325]","","",""
"sailing-trial","329","1641740","0.0-11.0-292.0","","","","false","","","","","","","","","","566.5","","31.100000023841858","","0","1","arrowleft","0","arrowleft","[0.85,0.15,0.675,0.325]","","",""
"sailing-trial","330","1644721","0.0-11.0-293.0","","","","false","","","","","","","","","","null","","1047.3999999761581","","3","1","null","null","arrowup","[0.85,0.15,0.675,0.325]","","",""
"sailing-trial","331","1650486","0.0-11.0-294.0","","","","false","","","","","","","","","","1933.2000000476837","","478.2999999523163","","2","0","arrowright","1","arrowleft","[0.85,0.15,0.675,0.325]","","",""
"sailing-trial","332","1654047","0.0-11.0-295.0","","","","false","","","","","","","","","","null","","1512.3999999761581","","2","1","null","null","arrowup","[0.85,0.15,0.675,0.325]","","",""
"sailing-trial","333","1658324","0.0-11.0-296.0","","","","false","","","","","","","","","","936.6000000238419","","629.8999999761581","","2","0","arrowright","1","arrowleft","[0.85,0.15,0.675,0.325]","","",""
"sailing-trial","334","1661428","0.0-11.0-297.0","","","","false","","","","","","","","","","null","","966.0999999046326","","3","0","null","null","arrowup","[0.85,0.15,0.675,0.325]","","",""
"sailing-trial","335","1665855","0.0-11.0-298.0","","","","false","","","","","","","","","","711.5999999046326","","827.8999999761581","","3","0","arrowright","1","arrowright","[0.85,0.15,0.675,0.325]","","",""
"sailing-trial","336","1670467","0.0-11.0-299.0","","","","false","","","","","","","","","","null","","2531.899999976158","","2","1","null","null","arrowup","[0.85,0.15,0.675,0.325]","","",""
"sailing-trial","337","1674763","0.0-11.0-300.0","","","","false","","","","","","","","","","717.8999999761581","","472.3000000715256","","0","1","arrowleft","0","arrowleft","[0.85,0.15,0.675,0.325]","","",""
"sailing-trial","338","1678795","0.0-11.0-301.0","","","","false","","","","","","","","","","null","","1016.4000000953674","","0","0","null","null","arrowup","[0.85,0.15,0.675,0.325]","","",""
"sailing-trial","339","1683039","0.0-11.0-302.0","","","","false","","","","","","","","","","759.3999999761581","","495.10000002384186","","2","1","arrowright","1","arrowleft","[0.85,0.15,0.675,0.325]","","",""
"sailing-trial","340","1686318","0.0-11.0-303.0","","","","false","","","","","","","","","","null","","814.5","","0","1","null","null","arrowup","[0.85,0.15,0.675,0.325]","","",""
"sailing-trial","341","1689839","0.0-11.0-304.0","","","","false","","","","","","","","","","539.6999999284744","","407.10000002384186","","0","0","arrowleft","0","arrowleft","[0.675,0.325,0.85,0.15]","","",""
"sailing-trial","342","1693928","0.0-11.0-305.0","","","","false","","","","","","","","","","null","","1122.1000000238419","","2","1","null","null","arrowup","[0.675,0.325,0.85,0.15]","","",""
"sailing-trial","343","1698362","0.0-11.0-306.0","","","","false","","","","","","","","","","1417","","256.60000002384186","","3","0","arrowright","1","arrowright","[0.675,0.325,0.85,0.15]","","",""
"sailing-trial","344","1700638","0.0-11.0-307.0","","","","false","","","","","","","","","","null","","1006.1000000238419","","1","0","null","null","arrowup","[0.675,0.325,0.85,0.15]","","",""
"sailing-trial","345","1703727","0.0-11.0-308.0","","","","false","","","","","","","","","","543.1000000238419","","458.09999990463257","","0","0","arrowleft","0","arrowleft","[0.675,0.325,0.85,0.15]","","",""
"sailing-trial","346","1706584","0.0-11.0-309.0","","","","false","","","","","","","","","","null","","1033.2999999523163","","2","1","null","null","arrowup","[0.675,0.325,0.85,0.15]","","",""
"sailing-trial","347","1710933","0.0-11.0-310.0","","","","false","","","","","","","","","","1059.5","","154","","3","1","arrowright","1","arrowright","[0.675,0.325,0.85,0.15]","","",""
"sailing-trial","348","1713681","0.0-11.0-311.0","","","","false","","","","","","","","","","null","","1384.3999999761581","","0","0","null","null","arrowup","[0.675,0.325,0.85,0.15]","","",""
"sailing-trial","349","1717242","0.0-11.0-312.0","","","","false","","","","","","","","","","481.89999997615814","","169.5","","0","1","arrowleft","0","arrowleft","[0.675,0.325,0.85,0.15]","","",""
"sailing-trial","350","1721571","0.0-11.0-313.0","","","","false","","","","","","","","","","null","","2314.600000023842","","0","1","null","null","arrowup","[0.675,0.325,0.85,0.15]","","",""
"sailing-trial","351","1725501","0.0-11.0-314.0","","","","false","","","","","","","","","","867.7999999523163","","131.80000007152557","","0","1","arrowleft","0","arrowleft","[0.675,0.325,0.85,0.15]","","",""
"sailing-trial","352","1728801","0.0-11.0-315.0","","","","false","","","","","","","","","","null","","1000.2000000476837","","3","1","null","null","arrowup","[0.675,0.325,0.85,0.15]","","",""
"sailing-trial","353","1733444","0.0-11.0-316.0","","","","false","","","","","","","","","","650.6000000238419","","1129.2000000476837","","3","1","arrowright","1","arrowright","[0.675,0.325,0.85,0.15]","","",""
"sailing-trial","354","1736241","0.0-11.0-317.0","","","","false","","","","","","","","","","null","","1458.1000000238419","","3","0","null","null","arrowup","[0.675,0.325,0.85,0.15]","","",""
"sailing-trial","355","1742519","0.0-11.0-318.0","","","","false","","","","","","","","","","1393.2999999523163","","368","","0","1","arrowleft","0","arrowleft","[0.675,0.325,0.85,0.15]","","",""
"sailing-trial","356","1745235","0.0-11.0-319.0","","","","false","","","","","","","","","","null","","851.5","","1","1","null","null","arrowup","[0.675,0.325,0.85,0.15]","","",""
"sailing-trial","357","1749848","0.0-11.0-320.0","","","","false","","","","","","","","","","640.2999999523163","","120","","1","1","arrowleft","0","arrowright","[0.675,0.325,0.85,0.15]","","",""
"sailing-trial","358","1753388","0.0-11.0-321.0","","","","false","","","","","","","","","","null","","1649.9000000953674","","3","0","null","null","arrowup","[0.675,0.325,0.85,0.15]","","",""
"sailing-trial","359","1760006","0.0-11.0-322.0","","","","false","","","","","","","","","","1125.6000000238419","","718.5","","2","1","arrowright","1","arrowleft","[0.675,0.325,0.85,0.15]","","",""
"sailing-trial","360","1762504","0.0-11.0-323.0","","","","false","","","","","","","","","","null","","708.1000000238419","","2","1","null","null","arrowup","[0.675,0.325,0.85,0.15]","","",""
"sailing-trial","361","1765504","0.0-11.0-324.0","","","","false","","","","","","","","","","556.1999999284744","","69.80000007152557","","1","0","arrowleft","0","arrowright","[0.85,0.15,0.675,0.325]","","",""
"sailing-trial","362","1767602","0.0-11.0-325.0","","","","false","","","","","","","","","","null","","838.2999999523163","","1","0","null","null","arrowup","[0.85,0.15,0.675,0.325]","","",""
"sailing-trial","363","1770978","0.0-11.0-326.0","","","","false","","","","","","","","","","604.7999999523163","","7.200000047683716","","0","1","arrowleft","0","arrowleft","[0.85,0.15,0.675,0.325]","","",""
"sailing-trial","364","1773181","0.0-11.0-327.0","","","","false","","","","","","","","","","null","","966.0999999046326","","3","0","null","null","arrowup","[0.85,0.15,0.675,0.325]","","",""
"sailing-trial","365","1777605","0.0-11.0-328.0","","","","false","","","","","","","","","","926.5","","531","","2","1","arrowright","1","arrowleft","[0.85,0.15,0.675,0.325]","","",""
"sailing-trial","366","1779667","0.0-11.0-329.0","","","","false","","","","","","","","","","null","","1011.2000000476837","","1","0","null","null","arrowup","[0.85,0.15,0.675,0.325]","","",""
"sailing-trial","367","1783933","0.0-11.0-330.0","","","","false","","","","","","","","","","485.40000009536743","","778.2999999523163","","2","1","arrowright","1","arrowleft","[0.85,0.15,0.675,0.325]","","",""
"sailing-trial","368","1786341","0.0-11.0-331.0","","","","false","","","","","","","","","","null","","1205.3000000715256","","3","0","null","null","arrowup","[0.85,0.15,0.675,0.325]","","",""
"sailing-trial","369","1792166","0.0-11.0-332.0","","","","false","","","","","","","","","","2980","","519.7000000476837","","2","0","arrowright","1","arrowleft","[0.85,0.15,0.675,0.325]","","",""
"sailing-trial","370","1795689","0.0-11.0-333.0","","","","false","","","","","","","","","","null","","1701","","2","1","null","null","arrowup","[0.85,0.15,0.675,0.325]","","",""
"sailing-trial","371","1799466","0.0-11.0-334.0","","","","false","","","","","","","","","","844.5","","590.7999999523163","","1","0","arrowleft","0","arrowright","[0.85,0.15,0.675,0.325]","","",""
"sailing-trial","372","1802533","0.0-11.0-335.0","","","","false","","","","","","","","","","null","","1291.7999999523163","","0","1","null","null","arrowup","[0.85,0.15,0.675,0.325]","","",""
"sailing-trial","373","1808013","0.0-11.0-336.0","","","","false","","","","","","","","","","2104.1999999284744","","609.8000000715256","","2","1","arrowright","1","arrowleft","[0.85,0.15,0.675,0.325]","","",""
"sailing-trial","374","1811075","0.0-11.0-337.0","","","","false","","","","","","","","","","null","","1283.6000000238419","","0","1","null","null","arrowup","[0.85,0.15,0.675,0.325]","","",""
"sailing-trial","375","1815872","0.0-11.0-338.0","","","","false","","","","","","","","","","1141.5999999046326","","747.8000000715256","","0","1","arrowleft","0","arrowleft","[0.85,0.15,0.675,0.325]","","",""
"sailing-trial","376","1819869","0.0-11.0-339.0","","","","false","","","","","","","","","","null","","2452.4000000953674","","2","1","null","null","arrowup","[0.85,0.15,0.675,0.325]","","",""
"sailing-trial","377","1824398","0.0-11.0-340.0","","","","false","","","","","","","","","","1070.3999999761581","","471.2999999523163","","0","1","arrowleft","0","arrowleft","[0.85,0.15,0.675,0.325]","","",""
"sailing-trial","378","1827614","0.0-11.0-341.0","","","","false","","","","","","","","","","null","","873.6999999284744","","1","0","null","null","arrowup","[0.85,0.15,0.675,0.325]","","",""
"sailing-trial","379","1832241","0.0-11.0-342.0","","","","false","","","","","","","","","","819.2999999523163","","895.5","","2","1","arrowright","1","arrowleft","[0.675,0.325,0.85,0.15]","","",""
"sailing-trial","380","1834757","0.0-11.0-343.0","","","","false","","","","","","","","","","null","","857","","3","0","null","null","arrowup","[0.675,0.325,0.85,0.15]","","",""
"sailing-trial","381","1838987","0.0-11.0-344.0","","","","false","","","","","","","","","","646.7000000476837","","594.7000000476837","","1","1","arrowleft","0","arrowright","[0.675,0.325,0.85,0.15]","","",""
"sailing-trial","382","1842686","0.0-11.0-345.0","","","","false","","","","","","","","","","null","","1650.5","","3","0","null","null","arrowup","[0.675,0.325,0.85,0.15]","","",""
"sailing-trial","383","1847927","0.0-11.0-346.0","","","","false","","","","","","","","","","2560.100000023842","","361.10000002384186","","0","0","arrowleft","0","arrowleft","[0.675,0.325,0.85,0.15]","","",""
"sailing-trial","384","1850198","0.0-11.0-347.0","","","","false","","","","","","","","","","null","","984.3999999761581","","1","0","null","null","arrowup","[0.675,0.325,0.85,0.15]","","",""
"sailing-trial","385","1853923","0.0-11.0-348.0","","","","false","","","","","","","","","","500.3000000715256","","328.39999997615814","","2","1","arrowright","1","arrowleft","[0.675,0.325,0.85,0.15]","","",""
"sailing-trial","386","1856018","0.0-11.0-349.0","","","","false","","","","","","","","","","null","","930.8999999761581","","3","0","null","null","arrowup","[0.675,0.325,0.85,0.15]","","",""
"sailing-trial","387","1859405","0.0-11.0-350.0","","","","false","","","","","","","","","","503.7999999523163","","425.1999999284744","","2","0","arrowright","1","arrowleft","[0.675,0.325,0.85,0.15]","","",""
"sailing-trial","388","1861653","0.0-11.0-351.0","","","","false","","","","","","","","","","null","","978.4000000953674","","1","0","null","null","arrowup","[0.675,0.325,0.85,0.15]","","",""
"sailing-trial","389","1865714","0.0-11.0-352.0","","","","false","","","","","","","","","","644.5","","404.39999997615814","","0","1","arrowleft","0","arrowleft","[0.675,0.325,0.85,0.15]","","",""
"sailing-trial","390","1870503","0.0-11.0-353.0","","","","false","","","","","","","","","","null","","3343.5","","1","0","null","null","arrowup","[0.675,0.325,0.85,0.15]","","",""
"sailing-trial","391","1874504","0.0-11.0-354.0","","","","false","","","","","","","","","","990.8999999761581","","38","","1","1","arrowleft","0","arrowright","[0.675,0.325,0.85,0.15]","","",""
"sailing-trial","392","1878287","0.0-11.0-355.0","","","","false","","","","","","","","","","null","","1760.1000000238419","","2","1","null","null","arrowup","[0.675,0.325,0.85,0.15]","","",""
"sailing-trial","393","1883682","0.0-11.0-356.0","","","","false","","","","","","","","","","1467.5","","98.5","","2","1","arrowright","1","arrowleft","[0.675,0.325,0.85,0.15]","","",""
"sailing-trial","394","1886402","0.0-11.0-357.0","","","","false","","","","","","","","","","null","","1326.7999999523163","","3","0","null","null","arrowup","[0.675,0.325,0.85,0.15]","","",""
"sailing-trial","395","1894122","0.0-11.0-358.0","","","","false","","","","","","","","","","3238","","197.40000009536743","","0","1","arrowleft","0","arrowleft","[0.675,0.325,0.85,0.15]","","",""
"sailing-trial","396","1898002","0.0-11.0-359.0","","","","false","","","","","","","","","","null","","978.1000000238419","","1","1","null","null","arrowup","[0.675,0.325,0.85,0.15]","","",""
"sailing-trial","397","1902729","0.0-11.0-360.0","","","","false","","","","","","","","","","780.2999999523163","","210.40000009536743","","0","1","arrowleft","0","arrowleft","[0.675,0.325,0.85,0.15]","","",""
"sailing-trial","398","1906060","0.0-11.0-361.0","","","","false","","","","","","","","","","null","","1401.1000000238419","","2","1","null","null","arrowup","[0.675,0.325,0.85,0.15]","","",""
"sailing-trial","399","1909930","0.0-11.0-362.0","","","","false","","","","","","","","","","1215.9000000953674","","40.299999952316284","","0","0","arrowleft","0","arrowleft","[0.325,0.675,0.15,0.85]","","",""
"sailing-trial","400","1912402","0.0-11.0-363.0","","","","false","","","","","","","","","","null","","897.2000000476837","","2","0","null","null","arrowup","[0.325,0.675,0.15,0.85]","","",""
"sailing-trial","401","1915826","0.0-11.0-364.0","","","","false","","","","","","","","","","574.7999999523163","","556","","2","0","arrowright","1","arrowleft","[0.325,0.675,0.15,0.85]","","",""
"sailing-trial","402","1918848","0.0-11.0-365.0","","","","false","","","","","","","","","","null","","676.1000000238419","","1","1","null","null","arrowup","[0.325,0.675,0.15,0.85]","","",""
"sailing-trial","403","1923694","0.0-11.0-366.0","","","","false","","","","","","","","","","1353.7999999523163","","16.899999976158142","","3","1","arrowright","1","arrowright","[0.325,0.675,0.15,0.85]","","",""
"sailing-trial","404","1926641","0.0-11.0-367.0","","","","false","","","","","","","","","","null","","982.2999999523163","","3","1","null","null","arrowup","[0.325,0.675,0.15,0.85]","","",""
"sailing-trial","405","1931097","0.0-11.0-368.0","","","","false","","","","","","","","","","908.8000000715256","","167.10000002384186","","2","0","arrowright","1","arrowleft","[0.325,0.675,0.15,0.85]","","",""
"sailing-trial","406","1935281","0.0-11.0-369.0","","","","false","","","","","","","","","","null","","3007.5","","3","0","null","null","arrowup","[0.325,0.675,0.15,0.85]","","",""
"sailing-trial","407","1942929","0.0-11.0-370.0","","","","false","","","","","","","","","","4948.100000023842","","250.39999997615814","","0","0","arrowleft","0","arrowleft","[0.325,0.675,0.15,0.85]","","",""
"sailing-trial","408","1945811","0.0-11.0-371.0","","","","false","","","","","","","","","","null","","1294.7000000476837","","2","0","null","null","arrowup","[0.325,0.675,0.15,0.85]","","",""
"sailing-trial","409","1951054","0.0-11.0-372.0","","","","false","","","","","","","","","","850.3999999761581","","1311.7000000476837","","3","1","arrowright","1","arrowright","[0.325,0.675,0.15,0.85]","","",""
"sailing-trial","410","1953716","0.0-11.0-373.0","","","","false","","","","","","","","","","null","","1324.8000000715256","","0","0","null","null","arrowup","[0.325,0.675,0.15,0.85]","","",""
"sailing-trial","411","1958319","0.0-11.0-374.0","","","","false","","","","","","","","","","2013.6000000238419","","94.30000007152557","","2","0","arrowright","1","arrowleft","[0.325,0.675,0.15,0.85]","","",""
"sailing-trial","412","1962629","0.0-11.0-375.0","","","","false","","","","","","","","","","null","","1513.6999999284744","","3","1","null","null","arrowup","[0.325,0.675,0.15,0.85]","","",""
"sailing-trial","413","1968235","0.0-11.0-376.0","","","","false","","","","","","","","","","1424","","478.10000002384186","","0","0","arrowleft","0","arrowleft","[0.325,0.675,0.15,0.85]","","",""
"sailing-trial","414","1974954","0.0-11.0-377.0","","","","false","","","","","","","","","","null","","3723.600000023842","","0","0","null","null","arrowup","[0.325,0.675,0.15,0.85]","","",""
"sailing-trial","415","1981333","0.0-11.0-378.0","","","","false","","","","","","","","","","2844.3000000715256","","801.2999999523163","","0","0","arrowleft","0","arrowleft","[0.325,0.675,0.15,0.85]","","",""
"sailing-trial","416","1984707","0.0-11.0-379.0","","","","false","","","","","","","","","","null","","1038.7999999523163","","3","1","null","null","arrowup","[0.325,0.675,0.15,0.85]","","",""
"sailing-trial","417","1988588","0.0-11.0-380.0","","","","false","","","","","","","","","","779.5","","123.60000002384186","","3","1","arrowright","1","arrowright","[0.675,0.325,0.85,0.15]","","",""
"sailing-trial","418","1991618","0.0-11.0-381.0","","","","false","","","","","","","","","","null","","1184.9000000953674","","3","0","null","null","arrowup","[0.675,0.325,0.85,0.15]","","",""
"sailing-trial","419","2006623","0.0-11.0-382.0","","","","true","","","","","","","","","","null","","null","","null","null","null","null","null","[0.675,0.325,0.85,0.15]","","",""
"sailing-trial","420","2009686","0.0-11.0-383.0","","","","false","","","","","","","","","","null","","1121.2000000476837","","2","1","null","null","arrowup","[0.675,0.325,0.85,0.15]","","",""
"sailing-trial","421","2014128","0.0-11.0-384.0","","","","false","","","","","","","","","","1473.2000000476837","","516.1000000238419","","0","0","arrowleft","0","arrowleft","[0.675,0.325,0.85,0.15]","","",""
"sailing-trial","422","2017746","0.0-11.0-385.0","","","","false","","","","","","","","","","null","","1606.5999999046326","","0","1","null","null","arrowup","[0.675,0.325,0.85,0.15]","","",""
"sailing-trial","423","2022159","0.0-11.0-386.0","","","","false","","","","","","","","","","928","","619.6999999284744","","2","1","arrowright","1","arrowleft","[0.675,0.325,0.85,0.15]","","",""
"sailing-trial","424","2024245","0.0-11.0-387.0","","","","false","","","","","","","","","","null","","753.5","","2","0","null","null","arrowup","[0.675,0.325,0.85,0.15]","","",""
"sailing-trial","425","2028520","0.0-11.0-388.0","","","","false","","","","","","","","","","766.6000000238419","","443.2000000476837","","2","1","arrowright","1","arrowleft","[0.675,0.325,0.85,0.15]","","",""
"sailing-trial","426","2031784","0.0-11.0-389.0","","","","false","","","","","","","","","","null","","1358","","2","1","null","null","arrowup","[0.675,0.325,0.85,0.15]","","",""
"sailing-trial","427","2035709","0.0-11.0-390.0","","","","false","","","","","","","","","","493.2999999523163","","934.2000000476837","","1","0","arrowleft","0","arrowright","[0.675,0.325,0.85,0.15]","","",""
"sailing-trial","428","2041109","0.0-11.0-391.0","","","","false","","","","","","","","","","null","","1608.6999999284744","","2","1","null","null","arrowup","[0.675,0.325,0.85,0.15]","","",""
"sailing-trial","429","2045771","0.0-11.0-392.0","","","","false","","","","","","","","","","952.0999999046326","","417.6999999284744","","2","1","arrowright","1","arrowleft","[0.675,0.325,0.85,0.15]","","",""
"sailing-trial","430","2048907","0.0-11.0-393.0","","","","false","","","","","","","","","","null","","1011.1999999284744","","1","0","null","null","arrowup","[0.675,0.325,0.85,0.15]","","",""
"sailing-trial","431","2053041","0.0-11.0-394.0","","","","false","","","","","","","","","","888.7999999523163","","248.79999995231628","","2","0","arrowright","1","arrowleft","[0.675,0.325,0.85,0.15]","","",""
"sailing-trial","432","2056063","0.0-11.0-395.0","","","","false","","","","","","","","","","null","","1126.2999999523163","","2","1","null","null","arrowup","[0.675,0.325,0.85,0.15]","","",""
"sailing-trial","433","2061159","0.0-11.0-396.0","","","","false","","","","","","","","","","796.5","","302.40000009536743","","2","1","arrowright","1","arrowleft","[0.675,0.325,0.85,0.15]","","",""
"sailing-trial","434","2064042","0.0-11.0-397.0","","","","false","","","","","","","","","","null","","1324.3999999761581","","3","0","null","null","arrowup","[0.675,0.325,0.85,0.15]","","",""
"sailing-trial","435","2068635","0.0-11.0-398.0","","","","false","","","","","","","","","","1368.9000000953674","","184.5","","2","1","arrowright","1","arrowleft","[0.675,0.325,0.85,0.15]","","",""
"sailing-trial","436","2072031","0.0-11.0-399.0","","","","false","","","","","","","","","","null","","1505.5","","0","0","null","null","arrowup","[0.675,0.325,0.85,0.15]","","",""
"instructions","437","2079989","0.0-12.0","","","","","","","","[{""event"":""fullscreenenter"",""trial"":3,""time"":9737},{""event"":""blur"",""trial"":36,""time"":495749},{""event"":""focus"",""trial"":36,""time"":495947},{""event"":""blur"",""trial"":438,""time"":2110808},{""event"":""focus"",""trial"":438,""time"":2110817},{""event"":""fullscreenexit"",""trial"":438,""time"":2110818}]","false","7957.100000023842","","","","","","","","","","","","","","","","[{""page_index"":0,""viewing_time"":7956.600000023842}]"
"survey-debrief","438","2124066","0.0-13.0","","","","","","","","","","44074.89999997616","","","","","","","","","","","","","","{""difficulty"":""4"",""fun"":""4"",""clarity"":""5"",""strategy"":""For when the fog popped up, I put my finger on the arrow up and it was easier. "",""feedback"":""no""}","",""
