"trial_type","trial_index","time_elapsed","internal_node_id","value","metadata","success","timeout","failed_images","failed_audio","failed_video","browser_interaction","low_quality","rt","stimulus","response","button_pressed","island_rt","island_response","boat_rt","boat_response","boat","reward","island_key","island","boat_key","reward_probabilities","responses","num_errors","view_history"
"pavlovia","0","6","0.0-0.0","","","","","","","","","","","","","","","","","","","","","","","","","",""
"call-function","1","7","0.0-1.0","","{""task_version"":""sailing_part1_v1"",""task_condition"":""good"",""boats"":[""C"",""A"",""B"",""D""],""boats_demo"":[""H"",""E"",""F"",""G""],""islands"":[""B"",""A""],""subject_id"":""14459"",""age"":""16"",""gender"":""Female""}","","","","","","","","","","","","","","","","","","","","","","","",""
"preload","2","1237","0.0-2.0","","","true","false","[]","[]","[]","[{""event"":""fullscreenenter"",""trial"":3,""time"":2640}]","false","","","","","","","","","","","","","","","","",""
"fullscreen","3","3630","0.0-3.0","","","true","","","","","","","","","","","","","","","","","","","","","","",""
"audio-keyboard-response","4","5772","0.0-4.0-0.0","","","","","","","","","","1952","audio/beep_loop.wav"," ","","","","","","","","","","","","","",""
"audio-test","5","11451","0.0-4.0-1.0","","","","","","","","","","null","audio/turtle.mp3","","3","","","","","","","","","","","","",""
"audio-test","6","51785","0.0-4.0-2.0","","","","","","","","","","null","audio/shark.mp3","","2","","","","","","","","","","","","",""
"sailing-instructions","7","91713","0.0-5.0-0.0-0.0","","","","","","","","","","","","","","null","null","null","null","null","null","","","","","","",""
"sailing-trial","8","97011","0.0-5.0-0.0-1.0-0.0","","","","false","","","","","","","","","","4178.400000000023","","null","","null","null","arrowleft","0","null","null","","",""
"sailing-trial","9","99428","0.0-5.0-0.0-1.0-1.0","","","","false","","","","","","","","","","1307.9000000000233","","null","","null","null","arrowright","1","null","null","","",""
"sailing-trial","10","102362","0.0-5.0-0.0-1.0-2.0","","","","false","","","","","","","","","","1817.600000000035","","null","","null","null","arrowright","1","null","null","","",""
"sailing-instructions","11","147063","0.0-5.0-0.0-2.0","","","","","","","","","","","","","","null","null","null","null","0","null","","","","","","",""
"sailing-trial","12","154006","0.0-5.0-0.0-3.0-0.0","","","","false","","","","","","","","","","null","","2990.5","","2","1","null","null","arrowleft","[1,1,1,1]","","",""
"sailing-trial","13","158690","0.0-5.0-0.0-3.0-1.0","","","","false","","","","","","","","","","null","","1535.7000000000116","","3","1","null","null","arrowright","[1,1,1,1]","","",""
"sailing-trial","14","162975","0.0-5.0-0.0-3.0-2.0","","","","false","","","","","","","","","","null","","1372.5","","3","0","null","null","arrowright","[0,0,0,0]","","",""
"sailing-instructions","15","170499","0.0-5.0-0.0-4.0","","","","","","","","","","","","","","null","null","null","null","null","null","","","","","","",""
"sailing-comprehension","16","194898","0.0-5.0-0.0-5.0","","","","","","","","","","22246","","","","","","","","","","","","","","[""true"",""true"",""false"",""true""]","0",""
"sailing-instructions","17","256991","0.0-6.0-0.0-0.0","","","","","","","","","","","","","","null","null","null","null","null","null","","","","","","",""
"sailing-comprehension","18","274367","0.0-6.0-0.0-1.0","","","","","","","","","","16124.900000000023","","","","","","","","","","","","","","[""true"",""false"",""true""]","0",""
"sailing-instructions","19","288797","0.0-7.0-0.0-0.0","","","","","","","","","","","","","","null","null","null","null","null","null","","","","","","",""
"sailing-trial","20","294516","0.0-7.0-0.0-1.0-0.0","","","","false","","","","","","","","","","null","","2699.6999999999534","","0","0","null","null","arrowup","[0.2,0.8,0.2,0.8]","","",""
"sailing-trial","21","300601","0.0-7.0-0.0-1.0-1.0","","","","false","","","","","","","","","","null","","3448.79999999993","","1","1","null","null","arrowup","[0.2,0.8,0.2,0.8]","","",""
"sailing-trial","22","302888","0.0-7.0-0.0-1.0-2.0","","","","false","","","","","","","","","","null","","946.7999999999302","","2","0","null","null","arrowup","[0.2,0.8,0.2,0.8]","","",""
"sailing-trial","23","305651","0.0-7.0-0.0-1.0-3.0","","","","false","","","","","","","","","","null","","881.2000000000698","","3","1","null","null","arrowup","[0.2,0.8,0.2,0.8]","","",""
"sailing-comprehension","24","314666","0.0-7.0-0.0-2.0","","","","","","","","","","6385.400000000023","","","","","","","","","","","","","","[""false""]","0",""
"sailing-instructions","25","325469","0.0-8.0-0.0-0.0","","","","","","","","","","","","","","null","null","null","null","null","null","","","","","","",""
"sailing-comprehension","26","330848","0.0-8.0-0.0-1.0","","","","","","","","","","4637.5","","","","","","","","","","","","","","[""true""]","0",""
"sailing-instructions","27","352950","0.0-9.0-0.0-0.0","","","","","","","","","","","","","","null","null","null","null","null","null","","","","","","",""
"sailing-trial","28","361228","0.0-9.0-0.0-1.0-0.0","","","","false","","","","","","","","","","1358.0999999999767","","1276.4000000000233","","3","1","arrowright","1","arrowright","[0.2,0.8,0.2,0.8]","","",""
"sailing-trial","29","366526","0.0-9.0-0.0-1.0-1.0","","","","false","","","","","","","","","","1167.8999999999069","","174.30000000004657","","3","0","arrowright","1","arrowright","[0.2,0.8,0.2,0.8]","","",""
"sailing-trial","30","370141","0.0-9.0-0.0-1.0-2.0","","","","false","","","","","","","","","","null","","1539.5999999999767","","0","0","null","null","arrowup","[0.2,0.8,0.2,0.8]","","",""
"sailing-trial","31","375698","0.0-9.0-0.0-1.0-3.0","","","","false","","","","","","","","","","1048","","185.59999999997672","","1","1","arrowleft","0","arrowright","[0.2,0.8,0.2,0.8]","","",""
"sailing-trial","32","379265","0.0-9.0-0.0-1.0-4.0","","","","false","","","","","","","","","","null","","1231.5999999999767","","3","1","null","null","arrowup","[0.2,0.8,0.2,0.8]","","",""
"sailing-trial","33","383433","0.0-9.0-0.0-1.0-5.0","","","","false","","","","","","","","","","697.1000000000931","","221.5","","1","1","arrowleft","0","arrowright","[0.2,0.8,0.2,0.8]","","",""
"sailing-instructions","34","409737","0.0-10.0","","","","","","","","","","","","","","null","null","null","null","null","null","","","","","","",""
"sailing-trial","35","414651","0.0-11.0-0.0","","","","false","","","","","","","","","","1072.5","","729.6000000000931","","1","0","arrowleft","0","arrowright","[0.675,0.325,0.85,0.15]","","",""
"sailing-trial","36","417313","0.0-11.0-1.0","","","","false","","","","","","","","","","null","","1265","","0","0","null","null","arrowup","[0.675,0.325,0.85,0.15]","","",""
"sailing-trial","37","421389","0.0-11.0-2.0","","","","false","","","","","","","","","","777.3000000000466","","243.09999999997672","","2","1","arrowright","1","arrowleft","[0.675,0.325,0.85,0.15]","","",""
"sailing-trial","38","425091","0.0-11.0-3.0","","","","false","","","","","","","","","","null","","1101.0999999999767","","2","1","null","null","arrowup","[0.675,0.325,0.85,0.15]","","",""
"sailing-trial","39","428775","0.0-11.0-4.0","","","","false","","","","","","","","","","500.10000000009313","","54.40000000002328","","2","1","arrowright","1","arrowleft","[0.675,0.325,0.85,0.15]","","",""
"sailing-trial","40","432695","0.0-11.0-5.0","","","","false","","","","","","","","","","null","","1792.3000000000466","","2","1","null","null","arrowup","[0.675,0.325,0.85,0.15]","","",""
"sailing-trial","41","436442","0.0-11.0-6.0","","","","false","","","","","","","","","","632.8000000000466","","91.09999999997672","","2","1","arrowright","1","arrowleft","[0.675,0.325,0.85,0.15]","","",""
"sailing-trial","42","439943","0.0-11.0-7.0","","","","false","","","","","","","","","","null","","1397.5999999999767","","0","1","null","null","arrowup","[0.675,0.325,0.85,0.15]","","",""
"sailing-trial","43","446111","0.0-11.0-8.0","","","","false","","","","","","","","","","648.7999999999302","","2624.9000000000233","","2","1","arrowright","1","arrowleft","[0.675,0.325,0.85,0.15]","","",""
"sailing-trial","44","449695","0.0-11.0-9.0","","","","false","","","","","","","","","","null","","1676.4000000000233","","2","1","null","null","arrowup","[0.675,0.325,0.85,0.15]","","",""
"sailing-trial","45","454563","0.0-11.0-10.0","","","","false","","","","","","","","","","560.0999999999767","","159.80000000004657","","2","1","arrowright","1","arrowleft","[0.675,0.325,0.85,0.15]","","",""
"sailing-trial","46","457863","0.0-11.0-11.0","","","","false","","","","","","","","","","null","","1274.6000000000931","","2","1","null","null","arrowup","[0.675,0.325,0.85,0.15]","","",""
"sailing-trial","47","463514","0.0-11.0-12.0","","","","false","","","","","","","","","","624.8000000000466","","1014.7999999999302","","2","0","arrowright","1","arrowleft","[0.675,0.325,0.85,0.15]","","",""
"sailing-trial","48","467069","0.0-11.0-13.0","","","","false","","","","","","","","","","null","","1975.2999999999302","","1","0","null","null","arrowup","[0.675,0.325,0.85,0.15]","","",""
"sailing-trial","49","472016","0.0-11.0-14.0","","","","false","","","","","","","","","","536.6999999999534","","201.59999999997672","","2","1","arrowright","1","arrowleft","[0.675,0.325,0.85,0.15]","","",""
"sailing-trial","50","475934","0.0-11.0-15.0","","","","false","","","","","","","","","","null","","1592.1999999999534","","3","1","null","null","arrowup","[0.675,0.325,0.85,0.15]","","",""
"sailing-trial","51","481384","0.0-11.0-16.0","","","","false","","","","","","","","","","529.0999999999767","","923.0999999999767","","3","0","arrowright","1","arrowright","[0.675,0.325,0.85,0.15]","","",""
"sailing-trial","52","485884","0.0-11.0-17.0","","","","false","","","","","","","","","","null","","1497.5999999999767","","1","0","null","null","arrowup","[0.675,0.325,0.85,0.15]","","",""
"sailing-trial","53","490653","0.0-11.0-18.0","","","","false","","","","","","","","","","1041.7999999999302","","376.0999999999767","","2","1","arrowright","1","arrowleft","[0.675,0.325,0.85,0.15]","","",""
"sailing-trial","54","494136","0.0-11.0-19.0","","","","false","","","","","","","","","","null","","1284.1999999999534","","0","1","null","null","arrowup","[0.675,0.325,0.85,0.15]","","",""
"sailing-trial","55","499338","0.0-11.0-20.0","","","","false","","","","","","","","","","580.8000000000466","","362.20000000006985","","2","1","arrowright","1","arrowleft","[0.85,0.15,0.675,0.325]","","",""
"sailing-trial","56","501947","0.0-11.0-21.0","","","","false","","","","","","","","","","null","","838.2000000000698","","3","0","null","null","arrowup","[0.85,0.15,0.675,0.325]","","",""
"sailing-trial","57","506006","0.0-11.0-22.0","","","","false","","","","","","","","","","967.5999999999767","","151.90000000002328","","2","1","arrowright","1","arrowleft","[0.85,0.15,0.675,0.325]","","",""
"sailing-trial","58","509439","0.0-11.0-23.0","","","","false","","","","","","","","","","null","","1154.4000000000233","","0","1","null","null","arrowup","[0.85,0.15,0.675,0.325]","","",""
"sailing-trial","59","513224","0.0-11.0-24.0","","","","false","","","","","","","","","","707.5","","13.20000000006985","","2","1","arrowright","1","arrowleft","[0.85,0.15,0.675,0.325]","","",""
"sailing-trial","60","516475","0.0-11.0-25.0","","","","false","","","","","","","","","","null","","987","","0","1","null","null","arrowup","[0.85,0.15,0.675,0.325]","","",""
"sailing-trial","61","520659","0.0-11.0-26.0","","","","false","","","","","","","","","","575.2999999999302","","333.5999999999767","","2","1","arrowright","1","arrowleft","[0.85,0.15,0.675,0.325]","","",""
"sailing-trial","62","523509","0.0-11.0-27.0","","","","false","","","","","","","","","","null","","881.9999999999418","","0","1","null","null","arrowup","[0.85,0.15,0.675,0.325]","","",""
"sailing-trial","63","527970","0.0-11.0-28.0","","","","false","","","","","","","","","","538.1999999999534","","115","","2","0","arrowright","1","arrowleft","[0.85,0.15,0.675,0.325]","","",""
"sailing-trial","64","531228","0.0-11.0-29.0","","","","false","","","","","","","","","","null","","1198.1000000000931","","1","1","null","null","arrowup","[0.85,0.15,0.675,0.325]","","",""
"sailing-trial","65","536429","0.0-11.0-30.0","","","","false","","","","","","","","","","675.3000000000466","","1575.0999999998603","","2","1","arrowright","1","arrowleft","[0.85,0.15,0.675,0.325]","","",""
"sailing-trial","66","540262","0.0-11.0-31.0","","","","false","","","","","","","","","","null","","1802.8000000000466","","2","1","null","null","arrowup","[0.85,0.15,0.675,0.325]","","",""
"sailing-trial","67","544942","0.0-11.0-32.0","","","","false","","","","","","","","","","570.5","","506.4000000001397","","2","0","arrowright","1","arrowleft","[0.85,0.15,0.675,0.325]","","",""
"sailing-trial","68","548447","0.0-11.0-33.0","","","","false","","","","","","","","","","null","","1270.0999999998603","","0","1","null","null","arrowup","[0.85,0.15,0.675,0.325]","","",""
"sailing-trial","69","552931","0.0-11.0-34.0","","","","false","","","","","","","","","","656.8999999999069","","179.89999999990687","","2","0","arrowright","1","arrowleft","[0.85,0.15,0.675,0.325]","","",""
"sailing-trial","70","557257","0.0-11.0-35.0","","","","false","","","","","","","","","","null","","1766.5","","3","0","null","null","arrowup","[0.85,0.15,0.675,0.325]","","",""
"sailing-trial","71","560851","0.0-11.0-36.0","","","","false","","","","","","","","","","529.3000000000466","","55.5","","0","1","arrowleft","0","arrowleft","[0.85,0.15,0.675,0.325]","","",""
"sailing-trial","72","564535","0.0-11.0-37.0","","","","false","","","","","","","","","","null","","1816.3000000000466","","0","1","null","null","arrowup","[0.85,0.15,0.675,0.325]","","",""
"sailing-trial","73","568568","0.0-11.0-38.0","","","","false","","","","","","","","","","510.19999999995343","","392.0999999998603","","0","1","arrowleft","0","arrowleft","[0.675,0.325,0.85,0.15]","","",""
"sailing-trial","74","571818","0.0-11.0-39.0","","","","false","","","","","","","","","","null","","1092","","1","1","null","null","arrowup","[0.675,0.325,0.85,0.15]","","",""
"sailing-trial","75","576002","0.0-11.0-40.0","","","","false","","","","","","","","","","541.8000000000466","","584.9000000001397","","0","1","arrowleft","0","arrowleft","[0.675,0.325,0.85,0.15]","","",""
"sailing-trial","76","580019","0.0-11.0-41.0","","","","false","","","","","","","","","","null","","1006.8999999999069","","1","0","null","null","arrowup","[0.675,0.325,0.85,0.15]","","",""
"sailing-trial","77","585455","0.0-11.0-42.0","","","","false","","","","","","","","","","647.1000000000931","","429.9000000001397","","0","1","arrowleft","0","arrowleft","[0.675,0.325,0.85,0.15]","","",""
"sailing-trial","78","589454","0.0-11.0-43.0","","","","false","","","","","","","","","","null","","990.3999999999069","","1","0","null","null","arrowup","[0.675,0.325,0.85,0.15]","","",""
"sailing-trial","79","594239","0.0-11.0-44.0","","","","false","","","","","","","","","","583.6999999999534","","193.20000000018626","","0","0","arrowleft","0","arrowleft","[0.675,0.325,0.85,0.15]","","",""
"sailing-trial","80","597390","0.0-11.0-45.0","","","","false","","","","","","","","","","null","","1227","","2","1","null","null","arrowup","[0.675,0.325,0.85,0.15]","","",""
"sailing-trial","81","601040","0.0-11.0-46.0","","","","false","","","","","","","","","","542.5","","99.19999999995343","","0","1","arrowleft","0","arrowleft","[0.675,0.325,0.85,0.15]","","",""
"sailing-trial","82","603825","0.0-11.0-47.0","","","","false","","","","","","","","","","null","","892.1000000000931","","1","1","null","null","arrowup","[0.675,0.325,0.85,0.15]","","",""
"sailing-trial","83","607408","0.0-11.0-48.0","","","","false","","","","","","","","","","665.0999999998603","","168.0999999998603","","0","1","arrowleft","0","arrowleft","[0.675,0.325,0.85,0.15]","","",""
"sailing-trial","84","610292","0.0-11.0-49.0","","","","false","","","","","","","","","","null","","1037.9000000001397","","2","1","null","null","arrowup","[0.675,0.325,0.85,0.15]","","",""
"sailing-trial","85","614727","0.0-11.0-50.0","","","","false","","","","","","","","","","446.89999999990687","","1147.5","","0","1","arrowleft","0","arrowleft","[0.675,0.325,0.85,0.15]","","",""
"sailing-trial","86","618443","0.0-11.0-51.0","","","","false","","","","","","","","","","null","","1627.8999999999069","","2","1","null","null","arrowup","[0.675,0.325,0.85,0.15]","","",""
"sailing-trial","87","622178","0.0-11.0-52.0","","","","false","","","","","","","","","","643.8999999999069","","107.5","","0","1","arrowleft","0","arrowleft","[0.675,0.325,0.85,0.15]","","",""
"sailing-trial","88","625362","0.0-11.0-53.0","","","","false","","","","","","","","","","null","","1320.3999999999069","","0","1","null","null","arrowup","[0.675,0.325,0.85,0.15]","","",""
"sailing-trial","89","629112","0.0-11.0-54.0","","","","false","","","","","","","","","","527.6000000000931","","443.5","","0","1","arrowleft","0","arrowleft","[0.675,0.325,0.85,0.15]","","",""
"sailing-trial","90","632047","0.0-11.0-55.0","","","","false","","","","","","","","","","null","","1082.6999999999534","","2","1","null","null","arrowup","[0.675,0.325,0.85,0.15]","","",""
"sailing-trial","91","635589","0.0-11.0-56.0","","","","false","","","","","","","","","","586.6000000000931","","702.6999999999534","","0","0","arrowleft","0","arrowleft","[0.675,0.325,0.85,0.15]","","",""
"sailing-trial","92","638613","0.0-11.0-57.0","","","","false","","","","","","","","","","null","","1615.6999999999534","","3","0","null","null","arrowup","[0.675,0.325,0.85,0.15]","","",""
"sailing-trial","93","643345","0.0-11.0-58.0","","","","false","","","","","","","","","","829.3999999999069","","1398.4000000001397","","0","0","arrowleft","0","arrowleft","[0.85,0.15,0.675,0.325]","","",""
"sailing-trial","94","647353","0.0-11.0-59.0","","","","false","","","","","","","","","","null","","2350.100000000093","","2","0","null","null","arrowup","[0.85,0.15,0.675,0.325]","","",""
"sailing-trial","95","652134","0.0-11.0-60.0","","","","false","","","","","","","","","","1238.8000000000466","","983.6999999999534","","1","0","arrowleft","0","arrowright","[0.85,0.15,0.675,0.325]","","",""
"sailing-trial","96","655018","0.0-11.0-61.0","","","","false","","","","","","","","","","null","","981.5999999998603","","2","1","null","null","arrowup","[0.85,0.15,0.675,0.325]","","",""
"sailing-trial","97","658101","0.0-11.0-62.0","","","","false","","","","","","","","","","429.4000000001397","","50.0999999998603","","0","1","arrowleft","0","arrowleft","[0.85,0.15,0.675,0.325]","","",""
"sailing-trial","98","661335","0.0-11.0-63.0","","","","false","","","","","","","","","","null","","1109.3999999999069","","3","0","null","null","arrowup","[0.85,0.15,0.675,0.325]","","",""
"sailing-trial","99","665154","0.0-11.0-64.0","","","","false","","","","","","","","","","550.6999999999534","","103.0999999998603","","0","1","arrowleft","0","arrowleft","[0.85,0.15,0.675,0.325]","","",""
"sailing-trial","100","668687","0.0-11.0-65.0","","","","false","","","","","","","","","","null","","1625.1999999999534","","0","1","null","null","arrowup","[0.85,0.15,0.675,0.325]","","",""
"sailing-trial","101","672237","0.0-11.0-66.0","","","","false","","","","","","","","","","537.6999999999534","","127.5","","0","1","arrowleft","0","arrowleft","[0.85,0.15,0.675,0.325]","","",""
"sailing-trial","102","676192","0.0-11.0-67.0","","","","false","","","","","","","","","","null","","994.8999999999069","","0","0","null","null","arrowup","[0.85,0.15,0.675,0.325]","","",""
"sailing-trial","103","680989","0.0-11.0-68.0","","","","false","","","","","","","","","","902.8999999999069","","1008.5999999998603","","0","1","arrowleft","0","arrowleft","[0.85,0.15,0.675,0.325]","","",""
"sailing-trial","104","683907","0.0-11.0-69.0","","","","false","","","","","","","","","","null","","978.2000000001863","","2","1","null","null","arrowup","[0.85,0.15,0.675,0.325]","","",""
"sailing-trial","105","687824","0.0-11.0-70.0","","","","false","","","","","","","","","","542.1999999999534","","548","","0","1","arrowleft","0","arrowleft","[0.85,0.15,0.675,0.325]","","",""
"sailing-trial","106","691658","0.0-11.0-71.0","","","","false","","","","","","","","","","null","","1585.0999999998603","","2","1","null","null","arrowup","[0.85,0.15,0.675,0.325]","","",""
"sailing-trial","107","696209","0.0-11.0-72.0","","","","false","","","","","","","","","","515.5","","1173.1999999999534","","0","1","arrowleft","0","arrowleft","[0.85,0.15,0.675,0.325]","","",""
"sailing-trial","108","699420","0.0-11.0-73.0","","","","false","","","","","","","","","","null","","1852.5","","1","0","null","null","arrowup","[0.85,0.15,0.675,0.325]","","",""
"sailing-trial","109","703626","0.0-11.0-74.0","","","","false","","","","","","","","","","647.8000000000466","","680.8000000000466","","0","1","arrowleft","0","arrowleft","[0.85,0.15,0.675,0.325]","","",""
"sailing-trial","110","706693","0.0-11.0-75.0","","","","false","","","","","","","","","","null","","1796","","1","0","null","null","arrowup","[0.85,0.15,0.675,0.325]","","",""
"sailing-trial","111","710194","0.0-11.0-76.0","","","","false","","","","","","","","","","452.5999999998603","","112.19999999995343","","0","1","arrowleft","0","arrowleft","[0.85,0.15,0.675,0.325]","","",""
"sailing-trial","112","713245","0.0-11.0-77.0","","","","false","","","","","","","","","","null","","1247.6999999999534","","0","1","null","null","arrowup","[0.85,0.15,0.675,0.325]","","",""
"sailing-trial","113","717096","0.0-11.0-78.0","","","","false","","","","","","","","","","554.5","","442","","0","1","arrowleft","0","arrowleft","[0.85,0.15,0.675,0.325]","","",""
"sailing-trial","114","720597","0.0-11.0-79.0","","","","false","","","","","","","","","","null","","1730.5999999998603","","1","1","null","null","arrowup","[0.85,0.15,0.675,0.325]","","",""
"sailing-trial","115","724147","0.0-11.0-80.0","","","","false","","","","","","","","","","475.30000000004657","","287.60000000009313","","0","1","arrowleft","0","arrowleft","[0.675,0.325,0.85,0.15]","","",""
"sailing-trial","116","727102","0.0-11.0-81.0","","","","false","","","","","","","","","","null","","1445.1999999999534","","3","0","null","null","arrowup","[0.675,0.325,0.85,0.15]","","",""
"sailing-trial","117","730143","0.0-11.0-82.0","","","","false","","","","","","","","","","461.30000000004657","","256.0999999998603","","0","0","arrowleft","0","arrowleft","[0.675,0.325,0.85,0.15]","","",""
"sailing-trial","118","732731","0.0-11.0-83.0","","","","false","","","","","","","","","","null","","987.3999999999069","","3","0","null","null","arrowup","[0.675,0.325,0.85,0.15]","","",""
"sailing-trial","119","736499","0.0-11.0-84.0","","","","false","","","","","","","","","","529.0999999998603","","114.4000000001397","","0","1","arrowleft","0","arrowleft","[0.675,0.325,0.85,0.15]","","",""
"sailing-trial","120","739538","0.0-11.0-85.0","","","","false","","","","","","","","","","null","","906.8999999999069","","3","0","null","null","arrowup","[0.675,0.325,0.85,0.15]","","",""
"sailing-trial","121","743175","0.0-11.0-86.0","","","","false","","","","","","","","","","523.1999999999534","","669.2000000001863","","0","0","arrowleft","0","arrowleft","[0.675,0.325,0.85,0.15]","","",""
"sailing-trial","122","747019","0.0-11.0-87.0","","","","false","","","","","","","","","","null","","1900.1000000000931","","0","1","null","null","arrowup","[0.675,0.325,0.85,0.15]","","",""
"sailing-trial","123","750986","0.0-11.0-88.0","","","","false","","","","","","","","","","420.80000000004657","","231.10000000009313","","0","1","arrowleft","0","arrowleft","[0.675,0.325,0.85,0.15]","","",""
"sailing-trial","124","753974","0.0-11.0-89.0","","","","false","","","","","","","","","","null","","1678.1999999999534","","1","0","null","null","arrowup","[0.675,0.325,0.85,0.15]","","",""
"sailing-trial","125","757463","0.0-11.0-90.0","","","","false","","","","","","","","","","488.60000000009313","","348.89999999990687","","0","0","arrowleft","0","arrowleft","[0.675,0.325,0.85,0.15]","","",""
"sailing-trial","126","759789","0.0-11.0-91.0","","","","false","","","","","","","","","","null","","952","","3","0","null","null","arrowup","[0.675,0.325,0.85,0.15]","","",""
"sailing-trial","127","763372","0.0-11.0-92.0","","","","false","","","","","","","","","","385.39999999990687","","232.10000000009313","","0","1","arrowleft","0","arrowleft","[0.675,0.325,0.85,0.15]","","",""
"sailing-trial","128","765795","0.0-11.0-93.0","","","","false","","","","","","","","","","null","","951.5","","0","0","null","null","arrowup","[0.675,0.325,0.85,0.15]","","",""
"sailing-trial","129","770239","0.0-11.0-94.0","","","","false","","","","","","","","","","817.3999999999069","","683.8000000000466","","2","1","arrowright","1","arrowleft","[0.675,0.325,0.85,0.15]","","",""
"sailing-trial","130","773574","0.0-11.0-95.0","","","","false","","","","","","","","","","null","","1518.7000000001863","","2","1","null","null","arrowup","[0.675,0.325,0.85,0.15]","","",""
"sailing-trial","131","776606","0.0-11.0-96.0","","","","false","","","","","","","","","","472.60000000009313","","311.19999999995343","","2","0","arrowright","1","arrowleft","[0.325,0.675,0.15,0.85]","","",""
"sailing-trial","132","779693","0.0-11.0-97.0","","","","false","","","","","","","","","","null","","1079.8000000000466","","3","1","null","null","arrowup","[0.325,0.675,0.15,0.85]","","",""
"sailing-trial","133","783341","0.0-11.0-98.0","","","","false","","","","","","","","","","420.4000000001397","","326.69999999995343","","3","1","arrowright","1","arrowright","[0.325,0.675,0.15,0.85]","","",""
"sailing-trial","134","786325","0.0-11.0-99.0","","","","false","","","","","","","","","","null","","1075.5","","1","1","null","null","arrowup","[0.325,0.675,0.15,0.85]","","",""
"sailing-trial","135","791460","0.0-11.0-100.0","","","","false","","","","","","","","","","572.8000000000466","","428.69999999995343","","3","1","arrowright","1","arrowright","[0.325,0.675,0.15,0.85]","","",""
"sailing-trial","136","793935","0.0-11.0-101.0","","","","false","","","","","","","","","","null","","898.6000000000931","","3","0","null","null","arrowup","[0.325,0.675,0.15,0.85]","","",""
"sailing-trial","137","798028","0.0-11.0-102.0","","","","false","","","","","","","","","","472","","597.9000000001397","","3","1","arrowright","1","arrowright","[0.325,0.675,0.15,0.85]","","",""
"sailing-trial","138","800945","0.0-11.0-103.0","","","","false","","","","","","","","","","null","","1286.8000000000466","","3","0","null","null","arrowup","[0.325,0.675,0.15,0.85]","","",""
"sailing-trial","139","804635","0.0-11.0-104.0","","","","false","","","","","","","","","","1123.8999999999069","","5.800000000046566","","2","0","arrowright","1","arrowleft","[0.325,0.675,0.15,0.85]","","",""
"sailing-trial","140","807299","0.0-11.0-105.0","","","","false","","","","","","","","","","null","","1160.3000000000466","","1","0","null","null","arrowup","[0.325,0.675,0.15,0.85]","","",""
"sailing-trial","141","811447","0.0-11.0-106.0","","","","false","","","","","","","","","","448.20000000018626","","177.5","","0","0","arrowleft","0","arrowleft","[0.325,0.675,0.15,0.85]","","",""
"sailing-trial","142","816531","0.0-11.0-107.0","","","","false","","","","","","","","","","null","","2780.3000000000466","","3","1","null","null","arrowup","[0.325,0.675,0.15,0.85]","","",""
"sailing-trial","143","820287","0.0-11.0-108.0","","","","false","","","","","","","","","","515.6999999999534","","418.89999999990687","","3","1","arrowright","1","arrowright","[0.325,0.675,0.15,0.85]","","",""
"sailing-trial","144","822507","0.0-11.0-109.0","","","","false","","","","","","","","","","null","","890.8999999999069","","2","0","null","null","arrowup","[0.325,0.675,0.15,0.85]","","",""
"sailing-trial","145","826818","0.0-11.0-110.0","","","","false","","","","","","","","","","542.1999999999534","","955.8000000000466","","3","1","arrowright","1","arrowright","[0.325,0.675,0.15,0.85]","","",""
"sailing-trial","146","829850","0.0-11.0-111.0","","","","false","","","","","","","","","","null","","1008.8000000000466","","1","1","null","null","arrowup","[0.325,0.675,0.15,0.85]","","",""
"sailing-trial","147","833670","0.0-11.0-112.0","","","","false","","","","","","","","","","583","","318.80000000004657","","3","1","arrowright","1","arrowright","[0.325,0.675,0.15,0.85]","","",""
"sailing-trial","148","836935","0.0-11.0-113.0","","","","false","","","","","","","","","","null","","1181.3000000000466","","3","1","null","null","arrowup","[0.325,0.675,0.15,0.85]","","",""
"sailing-trial","149","840370","0.0-11.0-114.0","","","","false","","","","","","","","","","504.4000000001397","","117.30000000004657","","3","1","arrowright","1","arrowright","[0.325,0.675,0.15,0.85]","","",""
"sailing-trial","150","844144","0.0-11.0-115.0","","","","false","","","","","","","","","","null","","2404.2000000001863","","1","0","null","null","arrowup","[0.325,0.675,0.15,0.85]","","",""
"sailing-trial","151","848662","0.0-11.0-116.0","","","","false","","","","","","","","","","460.4000000001397","","1500.3999999999069","","3","0","arrowright","1","arrowright","[0.15,0.85,0.325,0.675]","","",""
"sailing-trial","152","851116","0.0-11.0-117.0","","","","false","","","","","","","","","","null","","982","","3","0","null","null","arrowup","[0.15,0.85,0.325,0.675]","","",""
"sailing-trial","153","855006","0.0-11.0-118.0","","","","false","","","","","","","","","","552.6000000000931","","33.800000000046566","","3","1","arrowright","1","arrowright","[0.15,0.85,0.325,0.675]","","",""
"sailing-trial","154","857293","0.0-11.0-119.0","","","","false","","","","","","","","","","null","","951.8000000000466","","1","0","null","null","arrowup","[0.15,0.85,0.325,0.675]","","",""
"sailing-trial","155","860789","0.0-11.0-120.0","","","","false","","","","","","","","","","512.8000000000466","","32.200000000186265","","3","1","arrowright","1","arrowright","[0.15,0.85,0.325,0.675]","","",""
"sailing-trial","156","863606","0.0-11.0-121.0","","","","false","","","","","","","","","","null","","906.5","","1","1","null","null","arrowup","[0.15,0.85,0.325,0.675]","","",""
"sailing-trial","157","867675","0.0-11.0-122.0","","","","false","","","","","","","","","","554.6999999999534","","754.6999999999534","","3","1","arrowright","1","arrowright","[0.15,0.85,0.325,0.675]","","",""
"sailing-trial","158","871125","0.0-11.0-123.0","","","","false","","","","","","","","","","null","","1563.3999999999069","","0","1","null","null","arrowup","[0.15,0.85,0.325,0.675]","","",""
"sailing-trial","159","874959","0.0-11.0-124.0","","","","false","","","","","","","","","","481.9000000001397","","390.5","","2","1","arrowright","1","arrowleft","[0.15,0.85,0.325,0.675]","","",""
"sailing-trial","160","878610","0.0-11.0-125.0","","","","false","","","","","","","","","","null","","1831.8999999999069","","3","1","null","null","arrowup","[0.15,0.85,0.325,0.675]","","",""
"sailing-trial","161","882857","0.0-11.0-126.0","","","","false","","","","","","","","","","433.80000000004657","","277.69999999995343","","3","0","arrowright","1","arrowright","[0.15,0.85,0.325,0.675]","","",""
"sailing-trial","162","885414","0.0-11.0-127.0","","","","false","","","","","","","","","","null","","1158.1000000000931","","2","0","null","null","arrowup","[0.15,0.85,0.325,0.675]","","",""
"sailing-trial","163","888749","0.0-11.0-128.0","","","","false","","","","","","","","","","613.6999999999534","","341.39999999990687","","0","0","arrowleft","0","arrowleft","[0.15,0.85,0.325,0.675]","","",""
"sailing-trial","164","891847","0.0-11.0-129.0","","","","false","","","","","","","","","","null","","1169.5","","1","1","null","null","arrowup","[0.15,0.85,0.325,0.675]","","",""
"sailing-trial","165","895479","0.0-11.0-130.0","","","","false","","","","","","","","","","451.4000000001397","","296.29999999981374","","1","1","arrowleft","0","arrowright","[0.15,0.85,0.325,0.675]","","",""
"sailing-trial","166","898313","0.0-11.0-131.0","","","","false","","","","","","","","","","null","","932.1999999999534","","3","1","null","null","arrowup","[0.15,0.85,0.325,0.675]","","",""
"sailing-trial","167","901915","0.0-11.0-132.0","","","","false","","","","","","","","","","406.30000000004657","","385.79999999981374","","1","1","arrowleft","0","arrowright","[0.675,0.325,0.85,0.15]","","",""
"sailing-trial","168","905216","0.0-11.0-133.0","","","","false","","","","","","","","","","null","","1126.5999999998603","","2","1","null","null","arrowup","[0.675,0.325,0.85,0.15]","","",""
"sailing-trial","169","908682","0.0-11.0-134.0","","","","false","","","","","","","","","","510.69999999995343","","347.30000000004657","","1","1","arrowleft","0","arrowright","[0.675,0.325,0.85,0.15]","","",""
"sailing-trial","170","911682","0.0-11.0-135.0","","","","false","","","","","","","","","","null","","904.6000000000931","","1","1","null","null","arrowup","[0.675,0.325,0.85,0.15]","","",""
"sailing-trial","171","915421","0.0-11.0-136.0","","","","false","","","","","","","","","","414.10000000009313","","1087.7000000001863","","1","0","arrowleft","0","arrowright","[0.675,0.325,0.85,0.15]","","",""
"sailing-trial","172","918117","0.0-11.0-137.0","","","","false","","","","","","","","","","null","","894.9000000001397","","2","1","null","null","arrowup","[0.675,0.325,0.85,0.15]","","",""
"sailing-trial","173","922520","0.0-11.0-138.0","","","","false","","","","","","","","","","493.30000000004657","","947.5","","1","1","arrowleft","0","arrowright","[0.675,0.325,0.85,0.15]","","",""
"sailing-trial","174","925368","0.0-11.0-139.0","","","","false","","","","","","","","","","null","","834.3999999999069","","0","1","null","null","arrowup","[0.675,0.325,0.85,0.15]","","",""
"sailing-trial","175","928311","0.0-11.0-140.0","","","","false","","","","","","","","","","491.39999999990687","","216.39999999990687","","1","0","arrowleft","0","arrowright","[0.675,0.325,0.85,0.15]","","",""
"sailing-trial","176","930573","0.0-11.0-141.0","","","","false","","","","","","","","","","null","","953.1000000000931","","3","0","null","null","arrowup","[0.675,0.325,0.85,0.15]","","",""
"sailing-trial","177","935171","0.0-11.0-142.0","","","","false","","","","","","","","","","572.8000000000466","","1188.3000000000466","","2","1","arrowright","1","arrowleft","[0.675,0.325,0.85,0.15]","","",""
"sailing-trial","178","938071","0.0-11.0-143.0","","","","false","","","","","","","","","","null","","927.7999999998137","","1","1","null","null","arrowup","[0.675,0.325,0.85,0.15]","","",""
"sailing-trial","179","941754","0.0-11.0-144.0","","","","false","","","","","","","","","","526","","381.5","","2","0","arrowright","1","arrowleft","[0.675,0.325,0.85,0.15]","","",""
"sailing-trial","180","944473","0.0-11.0-145.0","","","","false","","","","","","","","","","null","","917.1000000000931","","3","0","null","null","arrowup","[0.675,0.325,0.85,0.15]","","",""
"sailing-trial","181","948574","0.0-11.0-146.0","","","","false","","","","","","","","","","670.6000000000931","","711.5","","1","0","arrowleft","0","arrowright","[0.675,0.325,0.85,0.15]","","",""
"sailing-trial","182","951808","0.0-11.0-147.0","","","","false","","","","","","","","","","null","","1362.0999999998603","","1","1","null","null","arrowup","[0.675,0.325,0.85,0.15]","","",""
"sailing-trial","183","955724","0.0-11.0-148.0","","","","false","","","","","","","","","","725","","262.30000000004657","","0","1","arrowleft","0","arrowleft","[0.85,0.15,0.675,0.325]","","",""
"sailing-trial","184","958833","0.0-11.0-149.0","","","","false","","","","","","","","","","null","","980.3000000000466","","3","0","null","null","arrowup","[0.85,0.15,0.675,0.325]","","",""
"sailing-trial","185","962626","0.0-11.0-150.0","","","","false","","","","","","","","","","370.29999999981374","","46.89999999990687","","0","1","arrowleft","0","arrowleft","[0.85,0.15,0.675,0.325]","","",""
"sailing-trial","186","964938","0.0-11.0-151.0","","","","false","","","","","","","","","","null","","917.1999999999534","","1","0","null","null","arrowup","[0.85,0.15,0.675,0.325]","","",""
"sailing-trial","187","968794","0.0-11.0-152.0","","","","false","","","","","","","","","","624.5","","415.19999999995343","","0","1","arrowleft","0","arrowleft","[0.85,0.15,0.675,0.325]","","",""
"sailing-trial","188","971053","0.0-11.0-153.0","","","","false","","","","","","","","","","null","","933.8000000000466","","1","0","null","null","arrowup","[0.85,0.15,0.675,0.325]","","",""
"sailing-trial","189","974167","0.0-11.0-154.0","","","","false","","","","","","","","","","460.10000000009313","","116.0999999998603","","0","0","arrowleft","0","arrowleft","[0.85,0.15,0.675,0.325]","","",""
"sailing-trial","190","976554","0.0-11.0-155.0","","","","false","","","","","","","","","","null","","969.1999999999534","","0","0","null","null","arrowup","[0.85,0.15,0.675,0.325]","","",""
"sailing-trial","191","980278","0.0-11.0-156.0","","","","false","","","","","","","","","","532.5999999998603","","286.0999999998603","","0","0","arrowleft","0","arrowleft","[0.85,0.15,0.675,0.325]","","",""
"sailing-trial","192","982582","0.0-11.0-157.0","","","","false","","","","","","","","","","null","","919.1000000000931","","1","0","null","null","arrowup","[0.85,0.15,0.675,0.325]","","",""
"sailing-trial","193","986313","0.0-11.0-158.0","","","","false","","","","","","","","","","483.70000000018626","","316.60000000009313","","3","1","arrowright","1","arrowright","[0.85,0.15,0.675,0.325]","","",""
"sailing-trial","194","988496","0.0-11.0-159.0","","","","false","","","","","","","","","","null","","797.9000000001397","","1","0","null","null","arrowup","[0.85,0.15,0.675,0.325]","","",""
"sailing-trial","195","992264","0.0-11.0-160.0","","","","false","","","","","","","","","","456.70000000018626","","356.10000000009313","","3","1","arrowright","1","arrowright","[0.85,0.15,0.675,0.325]","","",""
"sailing-trial","196","994932","0.0-11.0-161.0","","","","false","","","","","","","","","","null","","807.5999999998603","","3","1","null","null","arrowup","[0.85,0.15,0.675,0.325]","","",""
"sailing-trial","197","998999","0.0-11.0-162.0","","","","false","","","","","","","","","","548.5999999998603","","882.1999999999534","","3","0","arrowright","1","arrowright","[0.85,0.15,0.675,0.325]","","",""
"sailing-trial","198","1001751","0.0-11.0-163.0","","","","false","","","","","","","","","","null","","857.0999999998603","","0","1","null","null","arrowup","[0.85,0.15,0.675,0.325]","","",""
"sailing-trial","199","1006036","0.0-11.0-164.0","","","","false","","","","","","","","","","757.8999999999069","","1081.5999999998603","","3","0","arrowright","1","arrowright","[0.85,0.15,0.675,0.325]","","",""
"sailing-trial","200","1009146","0.0-11.0-165.0","","","","false","","","","","","","","","","null","","1018.6999999999534","","3","0","null","null","arrowup","[0.85,0.15,0.675,0.325]","","",""
"sailing-trial","201","1012735","0.0-11.0-166.0","","","","false","","","","","","","","","","552.3000000000466","","158.5","","0","1","arrowleft","0","arrowleft","[0.85,0.15,0.675,0.325]","","",""
"sailing-trial","202","1015352","0.0-11.0-167.0","","","","false","","","","","","","","","","null","","773.0999999998603","","0","1","null","null","arrowup","[0.85,0.15,0.675,0.325]","","",""
"sailing-trial","203","1019764","0.0-11.0-168.0","","","","false","","","","","","","","","","503.5999999998603","","82","","0","0","arrowleft","0","arrowleft","[0.85,0.15,0.675,0.325]","","",""
"sailing-trial","204","1022252","0.0-11.0-169.0","","","","false","","","","","","","","","","null","","1125.8999999999069","","1","0","null","null","arrowup","[0.85,0.15,0.675,0.325]","","",""
"sailing-trial","205","1026221","0.0-11.0-170.0","","","","false","","","","","","","","","","811.5999999998603","","734","","2","0","arrowright","1","arrowleft","[0.325,0.675,0.15,0.85]","","",""
"sailing-trial","206","1028495","0.0-11.0-171.0","","","","false","","","","","","","","","","null","","900.9000000001397","","2","0","null","null","arrowup","[0.325,0.675,0.15,0.85]","","",""
"sailing-trial","207","1032306","0.0-11.0-172.0","","","","false","","","","","","","","","","496.0999999998603","","201.89999999990687","","3","1","arrowright","1","arrowright","[0.325,0.675,0.15,0.85]","","",""
"sailing-trial","208","1035056","0.0-11.0-173.0","","","","false","","","","","","","","","","null","","805.8000000000466","","1","1","null","null","arrowup","[0.325,0.675,0.15,0.85]","","",""
"sailing-trial","209","1039457","0.0-11.0-174.0","","","","false","","","","","","","","","","520.3999999999069","","341.5999999998603","","3","1","arrowright","1","arrowright","[0.325,0.675,0.15,0.85]","","",""
"sailing-trial","210","1041575","0.0-11.0-175.0","","","","false","","","","","","","","","","null","","773.8000000000466","","0","0","null","null","arrowup","[0.325,0.675,0.15,0.85]","","",""
"sailing-trial","211","1045158","0.0-11.0-176.0","","","","false","","","","","","","","","","529.1999999999534","","118.4000000001397","","3","1","arrowright","1","arrowright","[0.325,0.675,0.15,0.85]","","",""
"sailing-trial","212","1047648","0.0-11.0-177.0","","","","false","","","","","","","","","","null","","974.8000000000466","","0","0","null","null","arrowup","[0.325,0.675,0.15,0.85]","","",""
"sailing-trial","213","1051426","0.0-11.0-178.0","","","","false","","","","","","","","","","462.5","","81.30000000004657","","3","1","arrowright","1","arrowright","[0.325,0.675,0.15,0.85]","","",""
"sailing-trial","214","1054610","0.0-11.0-179.0","","","","false","","","","","","","","","","null","","1372.3999999999069","","3","1","null","null","arrowup","[0.325,0.675,0.15,0.85]","","",""
"sailing-trial","215","1060094","0.0-11.0-180.0","","","","false","","","","","","","","","","556.9000000001397","","2080.600000000093","","3","1","arrowright","1","arrowright","[0.325,0.675,0.15,0.85]","","",""
"sailing-trial","216","1062295","0.0-11.0-181.0","","","","false","","","","","","","","","","null","","890.8999999999069","","0","0","null","null","arrowup","[0.325,0.675,0.15,0.85]","","",""
"sailing-trial","217","1065417","0.0-11.0-182.0","","","","false","","","","","","","","","","458.89999999990687","","6.300000000046566","","3","0","arrowright","1","arrowright","[0.325,0.675,0.15,0.85]","","",""
"sailing-trial","218","1067705","0.0-11.0-183.0","","","","false","","","","","","","","","","null","","889","","3","0","null","null","arrowup","[0.325,0.675,0.15,0.85]","","",""
"sailing-trial","219","1071217","0.0-11.0-184.0","","","","false","","","","","","","","","","555.3999999999069","","3.8999999999068677","","3","1","arrowright","1","arrowright","[0.325,0.675,0.15,0.85]","","",""
"sailing-trial","220","1074380","0.0-11.0-185.0","","","","false","","","","","","","","","","null","","884.8000000000466","","1","1","null","null","arrowup","[0.325,0.675,0.15,0.85]","","",""
"sailing-trial","221","1077597","0.0-11.0-186.0","","","","false","","","","","","","","","","534.4000000001397","","210","","3","0","arrowright","1","arrowright","[0.325,0.675,0.15,0.85]","","",""
"sailing-trial","222","1079868","0.0-11.0-187.0","","","","false","","","","","","","","","","null","","910.8000000000466","","0","0","null","null","arrowup","[0.325,0.675,0.15,0.85]","","",""
"sailing-trial","223","1083205","0.0-11.0-188.0","","","","false","","","","","","","","","","655.8000000000466","","311.10000000009313","","2","0","arrowright","1","arrowleft","[0.325,0.675,0.15,0.85]","","",""
"sailing-trial","224","1086284","0.0-11.0-189.0","","","","false","","","","","","","","","","null","","887.3999999999069","","1","0","null","null","arrowup","[0.325,0.675,0.15,0.85]","","",""
"sailing-trial","225","1089466","0.0-11.0-190.0","","","","false","","","","","","","","","","415.5999999998603","","266.5999999998603","","1","0","arrowleft","0","arrowright","[0.15,0.85,0.325,0.675]","","",""
"sailing-trial","226","1091640","0.0-11.0-191.0","","","","false","","","","","","","","","","null","","839.3999999999069","","3","0","null","null","arrowup","[0.15,0.85,0.325,0.675]","","",""
"sailing-trial","227","1095688","0.0-11.0-192.0","","","","false","","","","","","","","","","418.5999999998603","","129.69999999995343","","0","0","arrowleft","0","arrowleft","[0.15,0.85,0.325,0.675]","","",""
"sailing-trial","228","1098468","0.0-11.0-193.0","","","","false","","","","","","","","","","null","","914.8000000000466","","1","1","null","null","arrowup","[0.15,0.85,0.325,0.675]","","",""
"sailing-trial","229","1101835","0.0-11.0-194.0","","","","false","","","","","","","","","","478.19999999995343","","4.399999999906868","","1","1","arrowleft","0","arrowright","[0.15,0.85,0.325,0.675]","","",""
"sailing-trial","230","1104536","0.0-11.0-195.0","","","","false","","","","","","","","","","null","","894","","1","1","null","null","arrowup","[0.15,0.85,0.325,0.675]","","",""
"sailing-trial","231","1107383","0.0-11.0-196.0","","","","false","","","","","","","","","","461.39999999990687","","159.69999999995343","","1","0","arrowleft","0","arrowright","[0.15,0.85,0.325,0.675]","","",""
"sailing-trial","232","1110289","0.0-11.0-197.0","","","","false","","","","","","","","","","null","","1082.3999999999069","","2","1","null","null","arrowup","[0.15,0.85,0.325,0.675]","","",""
"sailing-trial","233","1114037","0.0-11.0-198.0","","","","false","","","","","","","","","","542.1000000000931","","306.60000000009313","","2","1","arrowright","1","arrowleft","[0.15,0.85,0.325,0.675]","","",""
"sailing-trial","234","1116353","0.0-11.0-199.0","","","","false","","","","","","","","","","null","","914.6000000000931","","2","0","null","null","arrowup","[0.15,0.85,0.325,0.675]","","",""
"sailing-trial","235","1119330","0.0-11.0-200.0","","","","false","","","","","","","","","","492.5999999998603","","247","","2","0","arrowright","1","arrowleft","[0.15,0.85,0.325,0.675]","","",""
"sailing-trial","236","1121581","0.0-11.0-201.0","","","","false","","","","","","","","","","null","","941.1999999999534","","2","0","null","null","arrowup","[0.15,0.85,0.325,0.675]","","",""
"sailing-trial","237","1124957","0.0-11.0-202.0","","","","false","","","","","","","","","","364.79999999981374","","42.39999999990687","","1","1","arrowleft","0","arrowright","[0.15,0.85,0.325,0.675]","","",""
"sailing-trial","238","1127557","0.0-11.0-203.0","","","","false","","","","","","","","","","null","","729.8000000000466","","3","1","null","null","arrowup","[0.15,0.85,0.325,0.675]","","",""
"sailing-trial","239","1130791","0.0-11.0-204.0","","","","false","","","","","","","","","","403.19999999995343","","319.0999999998603","","1","1","arrowleft","0","arrowright","[0.15,0.85,0.325,0.675]","","",""
"sailing-trial","240","1135568","0.0-11.0-205.0","","","","false","","","","","","","","","","null","","2938","","3","0","null","null","arrowup","[0.15,0.85,0.325,0.675]","","",""
"sailing-trial","241","1138960","0.0-11.0-206.0","","","","false","","","","","","","","","","437.0999999998603","","317.0999999998603","","1","1","arrowleft","0","arrowright","[0.325,0.675,0.15,0.85]","","",""
"sailing-trial","242","1142060","0.0-11.0-207.0","","","","false","","","","","","","","","","null","","1117.4000000001397","","0","1","null","null","arrowup","[0.325,0.675,0.15,0.85]","","",""
"sailing-trial","243","1146160","0.0-11.0-208.0","","","","false","","","","","","","","","","438.89999999990687","","716","","1","1","arrowleft","0","arrowright","[0.325,0.675,0.15,0.85]","","",""
"sailing-trial","244","1149461","0.0-11.0-209.0","","","","false","","","","","","","","","","null","","1330.7000000001863","","1","1","null","null","arrowup","[0.325,0.675,0.15,0.85]","","",""
"sailing-trial","245","1153388","0.0-11.0-210.0","","","","false","","","","","","","","","","497.60000000009313","","923.0999999998603","","1","0","arrowleft","0","arrowright","[0.325,0.675,0.15,0.85]","","",""
"sailing-trial","246","1156330","0.0-11.0-211.0","","","","false","","","","","","","","","","null","","877.3999999999069","","3","1","null","null","arrowup","[0.325,0.675,0.15,0.85]","","",""
"sailing-trial","247","1160746","0.0-11.0-212.0","","","","false","","","","","","","","","","750.5","","814.6000000000931","","1","1","arrowleft","0","arrowright","[0.325,0.675,0.15,0.85]","","",""
"sailing-trial","248","1163500","0.0-11.0-213.0","","","","false","","","","","","","","","","null","","813.6999999999534","","1","0","null","null","arrowup","[0.325,0.675,0.15,0.85]","","",""
"sailing-trial","249","1166763","0.0-11.0-214.0","","","","false","","","","","","","","","","565.3999999999069","","250.4000000001397","","1","0","arrowleft","0","arrowright","[0.325,0.675,0.15,0.85]","","",""
"sailing-trial","250","1169414","0.0-11.0-215.0","","","","false","","","","","","","","","","null","","846","","3","1","null","null","arrowup","[0.325,0.675,0.15,0.85]","","",""
"sailing-trial","251","1173232","0.0-11.0-216.0","","","","false","","","","","","","","","","669.5","","328.20000000018626","","3","1","arrowright","1","arrowright","[0.325,0.675,0.15,0.85]","","",""
"sailing-trial","252","1175474","0.0-11.0-217.0","","","","false","","","","","","","","","","null","","729.7000000001863","","3","0","null","null","arrowup","[0.325,0.675,0.15,0.85]","","",""
"sailing-trial","253","1179483","0.0-11.0-218.0","","","","false","","","","","","","","","","529.6999999999534","","424","","3","1","arrowright","1","arrowright","[0.325,0.675,0.15,0.85]","","",""
"sailing-trial","254","1184005","0.0-11.0-219.0","","","","false","","","","","","","","","","null","","2755.1999999999534","","2","1","null","null","arrowup","[0.325,0.675,0.15,0.85]","","",""
"sailing-trial","255","1187784","0.0-11.0-220.0","","","","false","","","","","","","","","","974.6000000000931","","400.5","","2","0","arrowright","1","arrowleft","[0.325,0.675,0.15,0.85]","","",""
"sailing-trial","256","1190551","0.0-11.0-221.0","","","","false","","","","","","","","","","null","","824","","3","1","null","null","arrowup","[0.325,0.675,0.15,0.85]","","",""
"sailing-trial","257","1195338","0.0-11.0-222.0","","","","false","","","","","","","","","","845.1000000000931","","309.60000000009313","","3","1","arrowright","1","arrowright","[0.15,0.85,0.325,0.675]","","",""
"sailing-trial","258","1198806","0.0-11.0-223.0","","","","false","","","","","","","","","","null","","2107.9000000001397","","1","0","null","null","arrowup","[0.15,0.85,0.325,0.675]","","",""
"sailing-trial","259","1201942","0.0-11.0-224.0","","","","false","","","","","","","","","","579.7999999998137","","413.5","","3","0","arrowright","1","arrowright","[0.15,0.85,0.325,0.675]","","",""
"sailing-trial","260","1204688","0.0-11.0-225.0","","","","false","","","","","","","","","","null","","866.4000000001397","","3","1","null","null","arrowup","[0.15,0.85,0.325,0.675]","","",""
"sailing-trial","261","1208372","0.0-11.0-226.0","","","","false","","","","","","","","","","474.69999999995343","","348.39999999990687","","3","1","arrowright","1","arrowright","[0.15,0.85,0.325,0.675]","","",""
"sailing-trial","262","1211856","0.0-11.0-227.0","","","","false","","","","","","","","","","null","","1681","","2","1","null","null","arrowup","[0.15,0.85,0.325,0.675]","","",""
"sailing-trial","263","1215457","0.0-11.0-228.0","","","","false","","","","","","","","","","485","","209.30000000004657","","3","1","arrowright","1","arrowright","[0.15,0.85,0.325,0.675]","","",""
"sailing-trial","264","1217543","0.0-11.0-229.0","","","","false","","","","","","","","","","null","","767.5","","2","0","null","null","arrowup","[0.15,0.85,0.325,0.675]","","",""
"sailing-trial","265","1220727","0.0-11.0-230.0","","","","false","","","","","","","","","","403.39999999990687","","7","","3","1","arrowright","1","arrowright","[0.15,0.85,0.325,0.675]","","",""
"sailing-trial","266","1223659","0.0-11.0-231.0","","","","false","","","","","","","","","","null","","822.1999999999534","","3","1","null","null","arrowup","[0.15,0.85,0.325,0.675]","","",""
"sailing-trial","267","1227033","0.0-11.0-232.0","","","","false","","","","","","","","","","468.60000000009313","","43.60000000009313","","3","1","arrowright","1","arrowright","[0.15,0.85,0.325,0.675]","","",""
"sailing-trial","268","1229877","0.0-11.0-233.0","","","","false","","","","","","","","","","null","","990.3000000000466","","3","1","null","null","arrowup","[0.15,0.85,0.325,0.675]","","",""
"sailing-trial","269","1233444","0.0-11.0-234.0","","","","false","","","","","","","","","","570.8000000000466","","267.60000000009313","","3","1","arrowright","1","arrowright","[0.15,0.85,0.325,0.675]","","",""
"sailing-trial","270","1237161","0.0-11.0-235.0","","","","false","","","","","","","","","","null","","1534.5999999998603","","3","1","null","null","arrowup","[0.15,0.85,0.325,0.675]","","",""
"sailing-trial","271","1240811","0.0-11.0-236.0","","","","false","","","","","","","","","","474.19999999995343","","270.19999999995343","","3","1","arrowright","1","arrowright","[0.15,0.85,0.325,0.675]","","",""
"sailing-trial","272","1243663","0.0-11.0-237.0","","","","false","","","","","","","","","","null","","836.7000000001863","","3","1","null","null","arrowup","[0.15,0.85,0.325,0.675]","","",""
"sailing-trial","273","1246879","0.0-11.0-238.0","","","","false","","","","","","","","","","529.5","","15.399999999906868","","3","1","arrowright","1","arrowright","[0.325,0.675,0.15,0.85]","","",""
"sailing-trial","274","1249480","0.0-11.0-239.0","","","","false","","","","","","","","","","null","","693.7999999998137","","3","1","null","null","arrowup","[0.325,0.675,0.15,0.85]","","",""
"sailing-trial","275","1252931","0.0-11.0-240.0","","","","false","","","","","","","","","","546.3999999999069","","151.30000000004657","","3","1","arrowright","1","arrowright","[0.325,0.675,0.15,0.85]","","",""
"sailing-trial","276","1255741","0.0-11.0-241.0","","","","false","","","","","","","","","","null","","1237.6000000000931","","2","0","null","null","arrowup","[0.325,0.675,0.15,0.85]","","",""
"sailing-trial","277","1259132","0.0-11.0-242.0","","","","false","","","","","","","","","","402.10000000009313","","150.4000000001397","","3","1","arrowright","1","arrowright","[0.325,0.675,0.15,0.85]","","",""
"sailing-trial","278","1261292","0.0-11.0-243.0","","","","false","","","","","","","","","","null","","839.7999999998137","","0","0","null","null","arrowup","[0.325,0.675,0.15,0.85]","","",""
"sailing-trial","279","1264766","0.0-11.0-244.0","","","","false","","","","","","","","","","482.30000000004657","","6.900000000139698","","3","1","arrowright","1","arrowright","[0.325,0.675,0.15,0.85]","","",""
"sailing-trial","280","1266935","0.0-11.0-245.0","","","","false","","","","","","","","","","null","","894.1999999999534","","1","0","null","null","arrowup","[0.325,0.675,0.15,0.85]","","",""
"sailing-trial","281","1270634","0.0-11.0-246.0","","","","false","","","","","","","","","","536","","262.20000000018626","","3","1","arrowright","1","arrowright","[0.325,0.675,0.15,0.85]","","",""
"sailing-trial","282","1272819","0.0-11.0-247.0","","","","false","","","","","","","","","","null","","854.5","","0","0","null","null","arrowup","[0.325,0.675,0.15,0.85]","","",""
"sailing-trial","283","1276686","0.0-11.0-248.0","","","","false","","","","","","","","","","437.70000000018626","","67.10000000009313","","3","1","arrowright","1","arrowright","[0.325,0.675,0.15,0.85]","","",""
"sailing-trial","284","1278772","0.0-11.0-249.0","","","","false","","","","","","","","","","null","","741.0999999998603","","2","0","null","null","arrowup","[0.325,0.675,0.15,0.85]","","",""
"sailing-trial","285","1282303","0.0-11.0-250.0","","","","false","","","","","","","","","","469.80000000004657","","265.5","","3","1","arrowright","1","arrowright","[0.325,0.675,0.15,0.85]","","",""
"sailing-trial","286","1284467","0.0-11.0-251.0","","","","false","","","","","","","","","","null","","859.9000000001397","","1","0","null","null","arrowup","[0.325,0.675,0.15,0.85]","","",""
"sailing-trial","287","1289121","0.0-11.0-252.0","","","","false","","","","","","","","","","478.39999999990687","","554.8000000000466","","3","1","arrowright","1","arrowright","[0.325,0.675,0.15,0.85]","","",""
"sailing-trial","288","1292056","0.0-11.0-253.0","","","","false","","","","","","","","","","null","","873.5999999998603","","2","1","null","null","arrowup","[0.325,0.675,0.15,0.85]","","",""
"sailing-trial","289","1295572","0.0-11.0-254.0","","","","false","","","","","","","","","","622.3999999999069","","1.1999999999534339","","3","1","arrowright","1","arrowright","[0.325,0.675,0.15,0.85]","","",""
"sailing-trial","290","1299373","0.0-11.0-255.0","","","","false","","","","","","","","","","null","","795.6000000000931","","2","0","null","null","arrowup","[0.325,0.675,0.15,0.85]","","",""
"sailing-trial","291","1303540","0.0-11.0-256.0","","","","false","","","","","","","","","","523.1999999999534","","619","","3","1","arrowright","1","arrowright","[0.15,0.85,0.325,0.675]","","",""
"sailing-trial","292","1307524","0.0-11.0-257.0","","","","false","","","","","","","","","","null","","972.5","","0","0","null","null","arrowup","[0.15,0.85,0.325,0.675]","","",""
"sailing-trial","293","1311358","0.0-11.0-258.0","","","","false","","","","","","","","","","853.5","","218.60000000009313","","3","1","arrowright","1","arrowright","[0.15,0.85,0.325,0.675]","","",""
"sailing-trial","294","1314958","0.0-11.0-259.0","","","","false","","","","","","","","","","null","","1948.3000000000466","","2","0","null","null","arrowup","[0.15,0.85,0.325,0.675]","","",""
"sailing-trial","295","1319012","0.0-11.0-260.0","","","","false","","","","","","","","","","561.8000000000466","","583.6999999999534","","3","1","arrowright","1","arrowright","[0.15,0.85,0.325,0.675]","","",""
"sailing-trial","296","1321434","0.0-11.0-261.0","","","","false","","","","","","","","","","null","","1088.6000000000931","","0","0","null","null","arrowup","[0.15,0.85,0.325,0.675]","","",""
"sailing-trial","297","1324944","0.0-11.0-262.0","","","","false","","","","","","","","","","575.0999999998603","","59.300000000046566","","3","1","arrowright","1","arrowright","[0.15,0.85,0.325,0.675]","","",""
"sailing-trial","298","1327277","0.0-11.0-263.0","","","","false","","","","","","","","","","null","","1017.7000000001863","","2","0","null","null","arrowup","[0.15,0.85,0.325,0.675]","","",""
"sailing-trial","299","1331196","0.0-11.0-264.0","","","","false","","","","","","","","","","409.60000000009313","","50.199999999953434","","3","1","arrowright","1","arrowright","[0.15,0.85,0.325,0.675]","","",""
"sailing-trial","300","1333308","0.0-11.0-265.0","","","","false","","","","","","","","","","null","","710.8999999999069","","2","0","null","null","arrowup","[0.15,0.85,0.325,0.675]","","",""
"sailing-trial","301","1336563","0.0-11.0-266.0","","","","false","","","","","","","","","","421.10000000009313","","43.800000000046566","","3","1","arrowright","1","arrowright","[0.15,0.85,0.325,0.675]","","",""
"sailing-trial","302","1338504","0.0-11.0-267.0","","","","false","","","","","","","","","","null","","657.0999999998603","","0","0","null","null","arrowup","[0.15,0.85,0.325,0.675]","","",""
"sailing-trial","303","1341874","0.0-11.0-268.0","","","","false","","","","","","","","","","406.79999999981374","","196.9000000001397","","3","0","arrowright","1","arrowright","[0.15,0.85,0.325,0.675]","","",""
"sailing-trial","304","1344487","0.0-11.0-269.0","","","","false","","","","","","","","","","null","","1297.6000000000931","","0","0","null","null","arrowup","[0.15,0.85,0.325,0.675]","","",""
"sailing-trial","305","1347950","0.0-11.0-270.0","","","","false","","","","","","","","","","444.60000000009313","","68.5999999998603","","3","1","arrowright","1","arrowright","[0.15,0.85,0.325,0.675]","","",""
"sailing-trial","306","1349911","0.0-11.0-271.0","","","","false","","","","","","","","","","null","","753.7000000001863","","0","0","null","null","arrowup","[0.15,0.85,0.325,0.675]","","",""
"sailing-trial","307","1353083","0.0-11.0-272.0","","","","false","","","","","","","","","","395.80000000004657","","29.699999999953434","","3","1","arrowright","1","arrowright","[0.15,0.85,0.325,0.675]","","",""
"sailing-trial","308","1356784","0.0-11.0-273.0","","","","false","","","","","","","","","","null","","988.3000000000466","","1","1","null","null","arrowup","[0.15,0.85,0.325,0.675]","","",""
"sailing-trial","309","1360752","0.0-11.0-274.0","","","","false","","","","","","","","","","744","","164.89999999990687","","3","1","arrowright","1","arrowright","[0.325,0.675,0.15,0.85]","","",""
"sailing-trial","310","1363801","0.0-11.0-275.0","","","","false","","","","","","","","","","null","","869.6999999999534","","3","1","null","null","arrowup","[0.325,0.675,0.15,0.85]","","",""
"sailing-trial","311","1367135","0.0-11.0-276.0","","","","false","","","","","","","","","","554.1000000000931","","5.599999999860302","","3","1","arrowright","1","arrowright","[0.325,0.675,0.15,0.85]","","",""
"sailing-trial","312","1369666","0.0-11.0-277.0","","","","false","","","","","","","","","","null","","1183","","2","0","null","null","arrowup","[0.325,0.675,0.15,0.85]","","",""
"sailing-trial","313","1372687","0.0-11.0-278.0","","","","false","","","","","","","","","","436.5999999998603","","301.0999999998603","","3","0","arrowright","1","arrowright","[0.325,0.675,0.15,0.85]","","",""
"sailing-trial","314","1374657","0.0-11.0-279.0","","","","false","","","","","","","","","","null","","791.3000000000466","","2","0","null","null","arrowup","[0.325,0.675,0.15,0.85]","","",""
"sailing-trial","315","1378505","0.0-11.0-280.0","","","","false","","","","","","","","","","354.30000000004657","","616.9000000001397","","3","1","arrowright","1","arrowright","[0.325,0.675,0.15,0.85]","","",""
"sailing-trial","316","1381288","0.0-11.0-281.0","","","","false","","","","","","","","","","null","","757.9000000001397","","0","1","null","null","arrowup","[0.325,0.675,0.15,0.85]","","",""
"sailing-trial","317","1385974","0.0-11.0-282.0","","","","false","","","","","","","","","","485.80000000004657","","1383.1999999999534","","3","1","arrowright","1","arrowright","[0.325,0.675,0.15,0.85]","","",""
"sailing-trial","318","1388375","0.0-11.0-283.0","","","","false","","","","","","","","","","null","","1118.8000000000466","","1","0","null","null","arrowup","[0.325,0.675,0.15,0.85]","","",""
"sailing-trial","319","1391760","0.0-11.0-284.0","","","","false","","","","","","","","","","471.30000000004657","","20.800000000046566","","3","1","arrowright","1","arrowright","[0.325,0.675,0.15,0.85]","","",""
"sailing-trial","320","1393876","0.0-11.0-285.0","","","","false","","","","","","","","","","null","","824","","1","0","null","null","arrowup","[0.325,0.675,0.15,0.85]","","",""
"sailing-trial","321","1397642","0.0-11.0-286.0","","","","false","","","","","","","","","","525.9000000001397","","380.4000000001397","","3","1","arrowright","1","arrowright","[0.325,0.675,0.15,0.85]","","",""
"sailing-trial","322","1400045","0.0-11.0-287.0","","","","false","","","","","","","","","","null","","833.9000000001397","","0","0","null","null","arrowup","[0.325,0.675,0.15,0.85]","","",""
"sailing-trial","323","1403727","0.0-11.0-288.0","","","","false","","","","","","","","","","752.3000000000466","","85.80000000004657","","3","1","arrowright","1","arrowright","[0.325,0.675,0.15,0.85]","","",""
"sailing-trial","324","1407086","0.0-11.0-289.0","","","","false","","","","","","","","","","null","","1871.3000000000466","","2","0","null","null","arrowup","[0.325,0.675,0.15,0.85]","","",""
"sailing-trial","325","1410343","0.0-11.0-290.0","","","","false","","","","","","","","","","346.60000000009313","","129","","3","1","arrowright","1","arrowright","[0.325,0.675,0.15,0.85]","","",""
"sailing-trial","326","1414908","0.0-11.0-291.0","","","","false","","","","","","","","","","null","","2463.3000000000466","","1","0","null","null","arrowup","[0.325,0.675,0.15,0.85]","","",""
"sailing-trial","327","1418361","0.0-11.0-292.0","","","","false","","","","","","","","","","553.3000000000466","","209.30000000004657","","3","1","arrowright","1","arrowright","[0.325,0.675,0.15,0.85]","","",""
"sailing-trial","328","1421695","0.0-11.0-293.0","","","","false","","","","","","","","","","null","","1532.0999999998603","","1","1","null","null","arrowup","[0.325,0.675,0.15,0.85]","","",""
"sailing-trial","329","1425213","0.0-11.0-294.0","","","","false","","","","","","","","","","505.39999999990687","","452","","3","1","arrowright","1","arrowright","[0.325,0.675,0.15,0.85]","","",""
"sailing-trial","330","1427115","0.0-11.0-295.0","","","","false","","","","","","","","","","null","","677.7000000001863","","2","0","null","null","arrowup","[0.325,0.675,0.15,0.85]","","",""
"sailing-trial","331","1430544","0.0-11.0-296.0","","","","false","","","","","","","","","","483.30000000004657","","249.4000000001397","","3","0","arrowright","1","arrowright","[0.325,0.675,0.15,0.85]","","",""
"sailing-trial","332","1433181","0.0-11.0-297.0","","","","false","","","","","","","","","","null","","873.3999999999069","","3","1","null","null","arrowup","[0.325,0.675,0.15,0.85]","","",""
"sailing-trial","333","1437281","0.0-11.0-298.0","","","","false","","","","","","","","","","743.6999999999534","","877.1999999999534","","3","0","arrowright","1","arrowright","[0.675,0.325,0.85,0.15]","","",""
"sailing-trial","334","1439672","0.0-11.0-299.0","","","","false","","","","","","","","","","null","","1031.8000000000466","","0","0","null","null","arrowup","[0.675,0.325,0.85,0.15]","","",""
"sailing-trial","335","1442944","0.0-11.0-300.0","","","","false","","","","","","","","","","430.30000000004657","","418.5","","3","0","arrowright","1","arrowright","[0.675,0.325,0.85,0.15]","","",""
"sailing-trial","336","1445818","0.0-11.0-301.0","","","","false","","","","","","","","","","null","","1031.4000000001397","","0","1","null","null","arrowup","[0.675,0.325,0.85,0.15]","","",""
"sailing-trial","337","1448901","0.0-11.0-302.0","","","","false","","","","","","","","","","236","","217.19999999995343","","0","1","arrowleft","0","arrowleft","[0.675,0.325,0.85,0.15]","","",""
"sailing-trial","338","1451585","0.0-11.0-303.0","","","","false","","","","","","","","","","null","","893.8999999999069","","0","1","null","null","arrowup","[0.675,0.325,0.85,0.15]","","",""
"sailing-trial","339","1454724","0.0-11.0-304.0","","","","false","","","","","","","","","","410.80000000004657","","257.79999999981374","","0","0","arrowleft","0","arrowleft","[0.675,0.325,0.85,0.15]","","",""
"sailing-trial","340","1457319","0.0-11.0-305.0","","","","false","","","","","","","","","","null","","1208.3000000000466","","0","0","null","null","arrowup","[0.675,0.325,0.85,0.15]","","",""
"sailing-trial","341","1460595","0.0-11.0-306.0","","","","false","","","","","","","","","","794","","75.29999999981374","","3","0","arrowright","1","arrowright","[0.675,0.325,0.85,0.15]","","",""
"sailing-trial","342","1463470","0.0-11.0-307.0","","","","false","","","","","","","","","","null","","1071.5","","2","1","null","null","arrowup","[0.675,0.325,0.85,0.15]","","",""
"sailing-trial","343","1466755","0.0-11.0-308.0","","","","false","","","","","","","","","","483.4000000001397","","48.60000000009313","","2","1","arrowright","1","arrowleft","[0.675,0.325,0.85,0.15]","","",""
"sailing-trial","344","1468867","0.0-11.0-309.0","","","","false","","","","","","","","","","null","","894.8999999999069","","1","0","null","null","arrowup","[0.675,0.325,0.85,0.15]","","",""
"sailing-trial","345","1472390","0.0-11.0-310.0","","","","false","","","","","","","","","","460.19999999995343","","150.4000000001397","","2","1","arrowright","1","arrowleft","[0.675,0.325,0.85,0.15]","","",""
"sailing-trial","346","1474496","0.0-11.0-311.0","","","","false","","","","","","","","","","null","","829.3999999999069","","3","0","null","null","arrowup","[0.675,0.325,0.85,0.15]","","",""
"sailing-trial","347","1478190","0.0-11.0-312.0","","","","false","","","","","","","","","","444.5999999998603","","357.30000000004657","","2","1","arrowright","1","arrowleft","[0.675,0.325,0.85,0.15]","","",""
"sailing-trial","348","1480958","0.0-11.0-313.0","","","","false","","","","","","","","","","null","","972.3000000000466","","2","1","null","null","arrowup","[0.675,0.325,0.85,0.15]","","",""
"sailing-trial","349","1484657","0.0-11.0-314.0","","","","false","","","","","","","","","","460","","349.80000000004657","","2","1","arrowright","1","arrowleft","[0.675,0.325,0.85,0.15]","","",""
"sailing-trial","350","1486874","0.0-11.0-315.0","","","","false","","","","","","","","","","null","","867.6999999999534","","3","0","null","null","arrowup","[0.675,0.325,0.85,0.15]","","",""
"sailing-trial","351","1489976","0.0-11.0-316.0","","","","false","","","","","","","","","","496.89999999990687","","108.30000000004657","","2","0","arrowright","1","arrowleft","[0.325,0.675,0.15,0.85]","","",""
"sailing-trial","352","1492306","0.0-11.0-317.0","","","","false","","","","","","","","","","null","","1020.6000000000931","","1","0","null","null","arrowup","[0.325,0.675,0.15,0.85]","","",""
"sailing-trial","353","1495990","0.0-11.0-318.0","","","","false","","","","","","","","","","930.6999999999534","","231.80000000004657","","2","0","arrowright","1","arrowleft","[0.325,0.675,0.15,0.85]","","",""
"sailing-trial","354","1497976","0.0-11.0-319.0","","","","false","","","","","","","","","","null","","732.1000000000931","","2","0","null","null","arrowup","[0.325,0.675,0.15,0.85]","","",""
"sailing-trial","355","1501577","0.0-11.0-320.0","","","","false","","","","","","","","","","427.5","","362.69999999995343","","1","1","arrowleft","0","arrowright","[0.325,0.675,0.15,0.85]","","",""
"sailing-trial","356","1504061","0.0-11.0-321.0","","","","false","","","","","","","","","","null","","736.1999999999534","","0","1","null","null","arrowup","[0.325,0.675,0.15,0.85]","","",""
"sailing-trial","357","1507146","0.0-11.0-322.0","","","","false","","","","","","","","","","97.69999999995343","","145.19999999995343","","1","1","arrowleft","0","arrowright","[0.325,0.675,0.15,0.85]","","",""
"sailing-trial","358","1509144","0.0-11.0-323.0","","","","false","","","","","","","","","","null","","706.8999999999069","","2","0","null","null","arrowup","[0.325,0.675,0.15,0.85]","","",""
"sailing-trial","359","1512780","0.0-11.0-324.0","","","","false","","","","","","","","","","469.19999999995343","","397.39999999990687","","1","1","arrowleft","0","arrowright","[0.325,0.675,0.15,0.85]","","",""
"sailing-trial","360","1514971","0.0-11.0-325.0","","","","false","","","","","","","","","","null","","825.3999999999069","","0","0","null","null","arrowup","[0.325,0.675,0.15,0.85]","","",""
"sailing-trial","361","1518331","0.0-11.0-326.0","","","","false","","","","","","","","","","473.69999999995343","","51.9000000001397","","1","1","arrowleft","0","arrowright","[0.325,0.675,0.15,0.85]","","",""
"sailing-trial","362","1520849","0.0-11.0-327.0","","","","false","","","","","","","","","","null","","756.1999999999534","","1","1","null","null","arrowup","[0.325,0.675,0.15,0.85]","","",""
"sailing-trial","363","1523882","0.0-11.0-328.0","","","","false","","","","","","","","","","391.80000000004657","","49.699999999953434","","1","1","arrowleft","0","arrowright","[0.325,0.675,0.15,0.85]","","",""
"sailing-trial","364","1526060","0.0-11.0-329.0","","","","false","","","","","","","","","","null","","793.1000000000931","","0","0","null","null","arrowup","[0.325,0.675,0.15,0.85]","","",""
"sailing-trial","365","1529550","0.0-11.0-330.0","","","","false","","","","","","","","","","525.7999999998137","","145.89999999990687","","1","1","arrowleft","0","arrowright","[0.325,0.675,0.15,0.85]","","",""
"sailing-trial","366","1532200","0.0-11.0-331.0","","","","false","","","","","","","","","","null","","894.8999999999069","","1","1","null","null","arrowup","[0.325,0.675,0.15,0.85]","","",""
"sailing-trial","367","1535048","0.0-11.0-332.0","","","","false","","","","","","","","","","422.0999999998603","","122.5","","1","0","arrowleft","0","arrowright","[0.15,0.85,0.325,0.675]","","",""
"sailing-trial","368","1537668","0.0-11.0-333.0","","","","false","","","","","","","","","","null","","848.3999999999069","","1","1","null","null","arrowup","[0.15,0.85,0.325,0.675]","","",""
"sailing-trial","369","1541368","0.0-11.0-334.0","","","","false","","","","","","","","","","414.5","","436.30000000004657","","1","1","arrowleft","0","arrowright","[0.15,0.85,0.325,0.675]","","",""
"sailing-trial","370","1544252","0.0-11.0-335.0","","","","false","","","","","","","","","","null","","1080.1999999999534","","1","1","null","null","arrowup","[0.15,0.85,0.325,0.675]","","",""
"sailing-trial","371","1547537","0.0-11.0-336.0","","","","false","","","","","","","","","","401.5","","129.89999999990687","","1","1","arrowleft","0","arrowright","[0.15,0.85,0.325,0.675]","","",""
"sailing-trial","372","1550334","0.0-11.0-337.0","","","","false","","","","","","","","","","null","","957.3999999999069","","3","1","null","null","arrowup","[0.15,0.85,0.325,0.675]","","",""
"sailing-trial","373","1553421","0.0-11.0-338.0","","","","false","","","","","","","","","","421.29999999981374","","3","","1","1","arrowleft","0","arrowright","[0.15,0.85,0.325,0.675]","","",""
"sailing-trial","374","1556106","0.0-11.0-339.0","","","","false","","","","","","","","","","null","","836.1999999999534","","0","1","null","null","arrowup","[0.15,0.85,0.325,0.675]","","",""
"sailing-trial","375","1559462","0.0-11.0-340.0","","","","false","","","","","","","","","","624.6000000000931","","246.80000000004657","","1","0","arrowleft","0","arrowright","[0.15,0.85,0.325,0.675]","","",""
"sailing-trial","376","1561651","0.0-11.0-341.0","","","","false","","","","","","","","","","null","","883.1999999999534","","2","0","null","null","arrowup","[0.15,0.85,0.325,0.675]","","",""
"sailing-trial","377","1564489","0.0-11.0-342.0","","","","false","","","","","","","","","","328.9000000001397","","134.69999999995343","","0","0","arrowleft","0","arrowleft","[0.15,0.85,0.325,0.675]","","",""
"sailing-trial","378","1566549","0.0-11.0-343.0","","","","false","","","","","","","","","","null","","742.6999999999534","","3","0","null","null","arrowup","[0.15,0.85,0.325,0.675]","","",""
"sailing-trial","379","1569409","0.0-11.0-344.0","","","","false","","","","","","","","","","523.9000000001397","","25.300000000046566","","2","0","arrowright","1","arrowleft","[0.15,0.85,0.325,0.675]","","",""
"sailing-trial","380","1571497","0.0-11.0-345.0","","","","false","","","","","","","","","","null","","815.8000000000466","","1","0","null","null","arrowup","[0.15,0.85,0.325,0.675]","","",""
"sailing-trial","381","1575025","0.0-11.0-346.0","","","","false","","","","","","","","","","431.4000000001397","","180.69999999995343","","1","1","arrowleft","0","arrowright","[0.15,0.85,0.325,0.675]","","",""
"sailing-trial","382","1577044","0.0-11.0-347.0","","","","false","","","","","","","","","","null","","741.1999999999534","","2","0","null","null","arrowup","[0.15,0.85,0.325,0.675]","","",""
"sailing-trial","383","1580592","0.0-11.0-348.0","","","","false","","","","","","","","","","391.30000000004657","","366.60000000009313","","1","1","arrowleft","0","arrowright","[0.15,0.85,0.325,0.675]","","",""
"sailing-trial","384","1582565","0.0-11.0-349.0","","","","false","","","","","","","","","","null","","732.6000000000931","","2","0","null","null","arrowup","[0.15,0.85,0.325,0.675]","","",""
"sailing-trial","385","1586110","0.0-11.0-350.0","","","","false","","","","","","","","","","358.19999999995343","","527","","1","1","arrowleft","0","arrowright","[0.325,0.675,0.15,0.85]","","",""
"sailing-trial","386","1588894","0.0-11.0-351.0","","","","false","","","","","","","","","","null","","1008.1999999999534","","1","1","null","null","arrowup","[0.325,0.675,0.15,0.85]","","",""
"sailing-trial","387","1592304","0.0-11.0-352.0","","","","false","","","","","","","","","","457.19999999995343","","375.4000000001397","","1","0","arrowleft","0","arrowright","[0.325,0.675,0.15,0.85]","","",""
"sailing-trial","388","1595012","0.0-11.0-353.0","","","","false","","","","","","","","","","null","","892.3999999999069","","0","1","null","null","arrowup","[0.325,0.675,0.15,0.85]","","",""
"sailing-trial","389","1598496","0.0-11.0-354.0","","","","false","","","","","","","","","","407.5999999998603","","182.5999999998603","","1","1","arrowleft","0","arrowright","[0.325,0.675,0.15,0.85]","","",""
"sailing-trial","390","1601112","0.0-11.0-355.0","","","","false","","","","","","","","","","null","","776.3000000000466","","2","1","null","null","arrowup","[0.325,0.675,0.15,0.85]","","",""
"sailing-trial","391","1604663","0.0-11.0-356.0","","","","false","","","","","","","","","","361.69999999995343","","366.69999999995343","","1","1","arrowleft","0","arrowright","[0.325,0.675,0.15,0.85]","","",""
"sailing-trial","392","1607481","0.0-11.0-357.0","","","","false","","","","","","","","","","null","","607.5","","0","1","null","null","arrowup","[0.325,0.675,0.15,0.85]","","",""
"sailing-trial","393","1610227","0.0-11.0-358.0","","","","false","","","","","","","","","","410.30000000004657","","88.4000000001397","","1","0","arrowleft","0","arrowright","[0.325,0.675,0.15,0.85]","","",""
"sailing-trial","394","1612699","0.0-11.0-359.0","","","","false","","","","","","","","","","null","","754.6999999999534","","3","1","null","null","arrowup","[0.325,0.675,0.15,0.85]","","",""
"sailing-trial","395","1616366","0.0-11.0-360.0","","","","false","","","","","","","","","","394.29999999981374","","369.5999999998603","","1","1","arrowleft","0","arrowright","[0.325,0.675,0.15,0.85]","","",""
"sailing-trial","396","1619216","0.0-11.0-361.0","","","","false","","","","","","","","","","null","","993.2000000001863","","1","1","null","null","arrowup","[0.325,0.675,0.15,0.85]","","",""
"sailing-trial","397","1622784","0.0-11.0-362.0","","","","false","","","","","","","","","","441.10000000009313","","358.5","","1","1","arrowleft","0","arrowright","[0.325,0.675,0.15,0.85]","","",""
"sailing-trial","398","1624887","0.0-11.0-363.0","","","","false","","","","","","","","","","null","","771.1999999999534","","2","0","null","null","arrowup","[0.325,0.675,0.15,0.85]","","",""
"sailing-trial","399","1628287","0.0-11.0-364.0","","","","false","","","","","","","","","","532","","191.69999999995343","","1","1","arrowleft","0","arrowright","[0.325,0.675,0.15,0.85]","","",""
"sailing-trial","400","1630852","0.0-11.0-365.0","","","","false","","","","","","","","","","null","","836.8999999999069","","0","1","null","null","arrowup","[0.325,0.675,0.15,0.85]","","",""
"sailing-trial","401","1633668","0.0-11.0-366.0","","","","false","","","","","","","","","","333.9000000001397","","33.199999999953434","","1","0","arrowleft","0","arrowright","[0.85,0.15,0.675,0.325]","","",""
"sailing-trial","402","1635596","0.0-11.0-367.0","","","","false","","","","","","","","","","null","","633.9000000001397","","3","0","null","null","arrowup","[0.85,0.15,0.675,0.325]","","",""
"sailing-trial","403","1639220","0.0-11.0-368.0","","","","false","","","","","","","","","","450.30000000004657","","322.69999999995343","","0","1","arrowleft","0","arrowleft","[0.85,0.15,0.675,0.325]","","",""
"sailing-trial","404","1641406","0.0-11.0-369.0","","","","false","","","","","","","","","","null","","837.2999999998137","","0","0","null","null","arrowup","[0.85,0.15,0.675,0.325]","","",""
"sailing-trial","405","1644804","0.0-11.0-370.0","","","","false","","","","","","","","","","539.1999999999534","","37.39999999990687","","1","1","arrowleft","0","arrowright","[0.85,0.15,0.675,0.325]","","",""
"sailing-trial","406","1647290","0.0-11.0-371.0","","","","false","","","","","","","","","","null","","676.1000000000931","","0","1","null","null","arrowup","[0.85,0.15,0.675,0.325]","","",""
"sailing-trial","407","1649791","0.0-11.0-372.0","","","","false","","","","","","","","","","234.39999999990687","","10.299999999813735","","1","0","arrowleft","0","arrowright","[0.85,0.15,0.675,0.325]","","",""
"sailing-trial","408","1651860","0.0-11.0-373.0","","","","false","","","","","","","","","","null","","798.1999999999534","","3","0","null","null","arrowup","[0.85,0.15,0.675,0.325]","","",""
"sailing-trial","409","1655325","0.0-11.0-374.0","","","","false","","","","","","","","","","400.89999999990687","","262.39999999990687","","0","1","arrowleft","0","arrowleft","[0.85,0.15,0.675,0.325]","","",""
"sailing-trial","410","1657609","0.0-11.0-375.0","","","","false","","","","","","","","","","null","","603.0999999998603","","2","1","null","null","arrowup","[0.85,0.15,0.675,0.325]","","",""
"sailing-trial","411","1660110","0.0-11.0-376.0","","","","false","","","","","","","","","","95.79999999981374","","22","","0","0","arrowleft","0","arrowleft","[0.85,0.15,0.675,0.325]","","",""
"sailing-trial","412","1662559","0.0-11.0-377.0","","","","false","","","","","","","","","","null","","855","","0","1","null","null","arrowup","[0.85,0.15,0.675,0.325]","","",""
"sailing-trial","413","1666710","0.0-11.0-378.0","","","","false","","","","","","","","","","347.89999999990687","","961.8999999999069","","2","1","arrowright","1","arrowleft","[0.85,0.15,0.675,0.325]","","",""
"sailing-trial","414","1669276","0.0-11.0-379.0","","","","false","","","","","","","","","","null","","769.6000000000931","","3","1","null","null","arrowup","[0.85,0.15,0.675,0.325]","","",""
"sailing-trial","415","1672153","0.0-11.0-380.0","","","","false","","","","","","","","","","367.19999999995343","","127.5","","2","0","arrowright","1","arrowleft","[0.85,0.15,0.675,0.325]","","",""
"sailing-trial","416","1674126","0.0-11.0-381.0","","","","false","","","","","","","","","","null","","659.1000000000931","","2","0","null","null","arrowup","[0.85,0.15,0.675,0.325]","","",""
"sailing-trial","417","1677207","0.0-11.0-382.0","","","","false","","","","","","","","","","432.60000000009313","","357.39999999990687","","3","0","arrowright","1","arrowright","[0.675,0.325,0.85,0.15]","","",""
"sailing-trial","418","1681145","0.0-11.0-383.0","","","","false","","","","","","","","","","null","","908.8000000000466","","2","1","null","null","arrowup","[0.675,0.325,0.85,0.15]","","",""
"sailing-trial","419","1684040","0.0-11.0-384.0","","","","false","","","","","","","","","","404.39999999990687","","66.5","","1","0","arrowleft","0","arrowright","[0.675,0.325,0.85,0.15]","","",""
"sailing-trial","420","1686113","0.0-11.0-385.0","","","","false","","","","","","","","","","null","","806.1000000000931","","0","0","null","null","arrowup","[0.675,0.325,0.85,0.15]","","",""
"sailing-trial","421","1690380","0.0-11.0-386.0","","","","false","","","","","","","","","","429","","976.6999999999534","","2","1","arrowright","1","arrowleft","[0.675,0.325,0.85,0.15]","","",""
"sailing-trial","422","1692356","0.0-11.0-387.0","","","","false","","","","","","","","","","null","","609.1999999999534","","3","0","null","null","arrowup","[0.675,0.325,0.85,0.15]","","",""
"sailing-trial","423","1695747","0.0-11.0-388.0","","","","false","","","","","","","","","","403.60000000009313","","157.30000000004657","","2","1","arrowright","1","arrowleft","[0.675,0.325,0.85,0.15]","","",""
"sailing-trial","424","1698014","0.0-11.0-389.0","","","","false","","","","","","","","","","null","","872.9000000001397","","0","0","null","null","arrowup","[0.675,0.325,0.85,0.15]","","",""
"sailing-trial","425","1701515","0.0-11.0-390.0","","","","false","","","","","","","","","","399.4000000001397","","328.5","","2","1","arrowright","1","arrowleft","[0.675,0.325,0.85,0.15]","","",""
"sailing-trial","426","1704050","0.0-11.0-391.0","","","","false","","","","","","","","","","null","","723.1999999999534","","3","1","null","null","arrowup","[0.675,0.325,0.85,0.15]","","",""
"sailing-trial","427","1707249","0.0-11.0-392.0","","","","false","","","","","","","","","","97","","332.80000000004657","","2","1","arrowright","1","arrowleft","[0.675,0.325,0.85,0.15]","","",""
"sailing-trial","428","1709851","0.0-11.0-393.0","","","","false","","","","","","","","","","null","","803.5","","0","1","null","null","arrowup","[0.675,0.325,0.85,0.15]","","",""
"sailing-trial","429","1713118","0.0-11.0-394.0","","","","false","","","","","","","","","","173.5","","203.69999999995343","","2","1","arrowright","1","arrowleft","[0.675,0.325,0.85,0.15]","","",""
"sailing-trial","430","1715270","0.0-11.0-395.0","","","","false","","","","","","","","","","null","","913.5","","2","0","null","null","arrowup","[0.675,0.325,0.85,0.15]","","",""
"sailing-trial","431","1718736","0.0-11.0-396.0","","","","false","","","","","","","","","","413.29999999981374","","296.80000000004657","","2","1","arrowright","1","arrowleft","[0.675,0.325,0.85,0.15]","","",""
"sailing-trial","432","1720991","0.0-11.0-397.0","","","","false","","","","","","","","","","null","","773","","3","0","null","null","arrowup","[0.675,0.325,0.85,0.15]","","",""
"sailing-trial","433","1724570","0.0-11.0-398.0","","","","false","","","","","","","","","","561","","251.30000000004657","","2","1","arrowright","1","arrowleft","[0.675,0.325,0.85,0.15]","","",""
"sailing-trial","434","1726894","0.0-11.0-399.0","","","","false","","","","","","","","","","null","","1126.8999999999069","","2","0","null","null","arrowup","[0.675,0.325,0.85,0.15]","","",""
"instructions","435","1737301","0.0-12.0","","","","","","","","","","10405.300000000047","","","","","","","","","","","","","","","","[{""page_index"":0,""viewing_time"":10403.09999999986}]"
"survey-debrief","436","1822892","0.0-13.0","","","","","","","","","","85585","","","","","","","","","","","","","","{""difficulty"":""5"",""fun"":""2"",""clarity"":""5"",""strategy"":""i always payed attention to the one with the clouds because it told me what was going on "",""feedback"":""""}","",""
