"trial_type","trial_index","time_elapsed","internal_node_id","value","metadata","success","timeout","failed_images","failed_audio","failed_video","browser_interaction","low_quality","rt","stimulus","response","button_pressed","island_rt","island_response","boat_rt","boat_response","boat","reward","island_key","island","boat_key","reward_probabilities","responses","num_errors","view_history"
"pavlovia","0","9","0.0-0.0","","","","","","","","","","","","","","","","","","","","","","","","","",""
"call-function","1","10","0.0-1.0","","{""task_version"":""sailing_part1_v1"",""task_condition"":""good"",""boats"":[""B"",""C"",""D"",""A""],""boats_demo"":[""G"",""F"",""H"",""E""],""islands"":[""A"",""B""],""subject_id"":""14734"",""age"":""16"",""gender"":""Female""}","","","","","","","","","","","","","","","","","","","","","","","",""
"preload","2","3783","0.0-2.0","","","true","false","[]","[]","[]","[{""event"":""fullscreenenter"",""trial"":3,""time"":18745}]","false","","","","","","","","","","","","","","","","",""
"fullscreen","3","19696","0.0-3.0","","","true","","","","","","","","","","","","","","","","","","","","","","",""
"audio-keyboard-response","4","21862","0.0-4.0-0.0","","","","","","","","","","2090.6666666666665","audio/beep_loop.wav"," ","","","","","","","","","","","","","",""
"audio-test","5","24608","0.0-4.0-1.0","","","","","","","","","","null","audio/turtle.mp3","","3","","","","","","","","","","","","",""
"audio-test","6","26812","0.0-4.0-2.0","","","","","","","","","","null","audio/shark.mp3","","2","","","","","","","","","","","","",""
"sailing-instructions","7","89599","0.0-5.0-0.0-0.0","","","","","","","","","","","","","","null","null","null","null","null","null","","","","","","",""
"sailing-trial","8","94638","0.0-5.0-0.0-1.0-0.0","","","","false","","","","","","","","","","3922.0999999996275","","null","","null","null","arrowleft","0","null","null","","",""
"sailing-trial","9","96864","0.0-5.0-0.0-1.0-1.0","","","","false","","","","","","","","","","1136.5","","null","","null","null","arrowright","1","null","null","","",""
"sailing-trial","10","98898","0.0-5.0-0.0-1.0-2.0","","","","false","","","","","","","","","","932.1999999992549","","null","","null","null","arrowright","1","null","null","","",""
"sailing-instructions","11","152706","0.0-5.0-0.0-2.0","","","","","","","","","","","","","","null","null","null","null","0","null","","","","","","",""
"sailing-trial","12","160497","0.0-5.0-0.0-3.0-0.0","","","","false","","","","","","","","","","null","","2114.2000000011176","","2","1","null","null","arrowleft","[1,1,1,1]","","",""
"sailing-trial","13","163714","0.0-5.0-0.0-3.0-1.0","","","","false","","","","","","","","","","null","","424.90000000037253","","3","1","null","null","arrowright","[1,1,1,1]","","",""
"sailing-trial","14","167752","0.0-5.0-0.0-3.0-2.0","","","","false","","","","","","","","","","null","","377.80000000074506","","2","0","null","null","arrowleft","[0,0,0,0]","","",""
"sailing-instructions","15","175927","0.0-5.0-0.0-4.0","","","","","","","","","","","","","","null","null","null","null","null","null","","","","","","",""
"sailing-comprehension","16","196008","0.0-5.0-0.0-5.0","","","","","","","","","","15024.200000001118","","","","","","","","","","","","","","[""true"",""true"",""false"",""true""]","0",""
"sailing-instructions","17","264463","0.0-6.0-0.0-0.0","","","","","","","","","","","","","","null","null","null","null","null","null","","","","","","",""
"sailing-comprehension","18","276315","0.0-6.0-0.0-1.0","","","","","","","","","","10522.400000000373","","","","","","","","","","","","","","[""true"",""false"",""true""]","0",""
"sailing-instructions","19","301242","0.0-7.0-0.0-0.0","","","","","","","","","","","","","","null","null","null","null","null","null","","","","","","",""
"sailing-trial","20","306255","0.0-7.0-0.0-1.0-0.0","","","","false","","","","","","","","","","null","","2334.4000000003725","","0","0","null","null","arrowup","[0.2,0.8,0.2,0.8]","","",""
"sailing-trial","21","309747","0.0-7.0-0.0-1.0-1.0","","","","false","","","","","","","","","","null","","1666.199999999255","","1","1","null","null","arrowup","[0.2,0.8,0.2,0.8]","","",""
"sailing-trial","22","311744","0.0-7.0-0.0-1.0-2.0","","","","false","","","","","","","","","","null","","768","","2","0","null","null","arrowup","[0.2,0.8,0.2,0.8]","","",""
"sailing-trial","23","314398","0.0-7.0-0.0-1.0-3.0","","","","false","","","","","","","","","","null","","682.3999999985099","","3","1","null","null","arrowup","[0.2,0.8,0.2,0.8]","","",""
"sailing-comprehension","24","319649","0.0-7.0-0.0-2.0","","","","","","","","","","4086.2000000011176","","","","","","","","","","","","","","[""false""]","0",""
"sailing-instructions","25","330000","0.0-8.0-0.0-0.0","","","","","","","","","","","","","","null","null","null","null","null","null","","","","","","",""
"sailing-comprehension","26","337632","0.0-8.0-0.0-1.0","","","","","","","","","","6275","","","","","","","","","","","","","","[""true""]","0",""
"sailing-instructions","27","366606","0.0-9.0-0.0-0.0","","","","","","","","","","","","","","null","null","null","null","null","null","","","","","","",""
"sailing-trial","28","377031","0.0-9.0-0.0-1.0-0.0","","","","false","","","","","","","","","","1347.4000000003725","","1366.7999999988824","","3","1","arrowright","1","arrowright","[0.2,0.8,0.2,0.8]","","",""
"sailing-trial","29","381981","0.0-9.0-0.0-1.0-1.0","","","","false","","","","","","","","","","889.7000000011176","","413.40000000037253","","0","1","arrowleft","0","arrowleft","[0.2,0.8,0.2,0.8]","","",""
"sailing-trial","30","384959","0.0-9.0-0.0-1.0-2.0","","","","false","","","","","","","","","","null","","1100.300000000745","","0","0","null","null","arrowup","[0.2,0.8,0.2,0.8]","","",""
"sailing-trial","31","391267","0.0-9.0-0.0-1.0-3.0","","","","false","","","","","","","","","","2024.1000000014901","","910.4000000003725","","0","0","arrowleft","0","arrowleft","[0.2,0.8,0.2,0.8]","","",""
"sailing-trial","32","394233","0.0-9.0-0.0-1.0-4.0","","","","false","","","","","","","","","","null","","984.1000000014901","","3","0","null","null","arrowup","[0.2,0.8,0.2,0.8]","","",""
"sailing-trial","33","400254","0.0-9.0-0.0-1.0-5.0","","","","false","","","","","","","","","","1305.8999999985099","","396.19999999925494","","3","1","arrowright","1","arrowright","[0.2,0.8,0.2,0.8]","","",""
"sailing-instructions","34","430588","0.0-10.0","","","","","","","","","","","","","","null","null","null","null","null","null","","","","","","",""
"sailing-trial","35","438994","0.0-11.0-0.0","","","","false","","","","","","","","","","2211.4000000003725","","1201.300000000745","","2","0","arrowright","1","arrowleft","[0.325,0.675,0.15,0.85]","","",""
"sailing-trial","36","443712","0.0-11.0-1.0","","","","false","","","","","","","","","","null","","1711.0999999996275","","2","0","null","null","arrowup","[0.325,0.675,0.15,0.85]","","",""
"sailing-trial","37","450460","0.0-11.0-2.0","","","","false","","","","","","","","","","1724.0999999996275","","966","","3","0","arrowright","1","arrowright","[0.325,0.675,0.15,0.85]","","",""
"sailing-trial","38","455148","0.0-11.0-3.0","","","","false","","","","","","","","","","null","","1968","","3","1","null","null","arrowup","[0.325,0.675,0.15,0.85]","","",""
"sailing-trial","39","462716","0.0-11.0-4.0","","","","false","","","","","","","","","","2148.7999999988824","","729.9000000003725","","0","0","arrowleft","0","arrowleft","[0.325,0.675,0.15,0.85]","","",""
"sailing-trial","40","466828","0.0-11.0-5.0","","","","false","","","","","","","","","","null","","1500.4000000003725","","3","0","null","null","arrowup","[0.325,0.675,0.15,0.85]","","",""
"sailing-trial","41","472157","0.0-11.0-6.0","","","","false","","","","","","","","","","1456","","310.19999999925494","","0","0","arrowleft","0","arrowleft","[0.325,0.675,0.15,0.85]","","",""
"sailing-trial","42","475333","0.0-11.0-7.0","","","","false","","","","","","","","","","null","","1857.0999999996275","","1","0","null","null","arrowup","[0.325,0.675,0.15,0.85]","","",""
"sailing-trial","43","482639","0.0-11.0-8.0","","","","false","","","","","","","","","","2194.4000000003725","","502.09999999962747","","2","0","arrowright","1","arrowleft","[0.325,0.675,0.15,0.85]","","",""
"sailing-trial","44","485924","0.0-11.0-9.0","","","","false","","","","","","","","","","null","","981.2000000011176","","2","1","null","null","arrowup","[0.325,0.675,0.15,0.85]","","",""
"sailing-trial","45","492638","0.0-11.0-10.0","","","","false","","","","","","","","","","2527.0999999996275","","465.6000000014901","","2","0","arrowright","1","arrowleft","[0.325,0.675,0.15,0.85]","","",""
"sailing-trial","46","494481","0.0-11.0-11.0","","","","false","","","","","","","","","","null","","536.4000000003725","","2","0","null","null","arrowup","[0.325,0.675,0.15,0.85]","","",""
"sailing-trial","47","499524","0.0-11.0-12.0","","","","false","","","","","","","","","","610.5","","239.2999999988824","","2","0","arrowright","1","arrowleft","[0.325,0.675,0.15,0.85]","","",""
"sailing-trial","48","502037","0.0-11.0-13.0","","","","false","","","","","","","","","","null","","1075.0999999996275","","0","0","null","null","arrowup","[0.325,0.675,0.15,0.85]","","",""
"sailing-trial","49","509343","0.0-11.0-14.0","","","","false","","","","","","","","","","1774.699999999255","","1133.2000000011176","","2","0","arrowright","1","arrowleft","[0.325,0.675,0.15,0.85]","","",""
"sailing-trial","50","513347","0.0-11.0-15.0","","","","false","","","","","","","","","","null","","1925.9000000003725","","3","1","null","null","arrowup","[0.325,0.675,0.15,0.85]","","",""
"sailing-trial","51","520365","0.0-11.0-16.0","","","","false","","","","","","","","","","1657","","479.2999999988824","","3","0","arrowright","1","arrowright","[0.85,0.15,0.675,0.325]","","",""
"sailing-trial","52","524117","0.0-11.0-17.0","","","","false","","","","","","","","","","null","","1542.9000000003725","","3","1","null","null","arrowup","[0.85,0.15,0.675,0.325]","","",""
"sailing-trial","53","529899","0.0-11.0-18.0","","","","false","","","","","","","","","","783.5999999996275","","803.1000000014901","","3","1","arrowright","1","arrowright","[0.85,0.15,0.675,0.325]","","",""
"sailing-trial","54","533295","0.0-11.0-19.0","","","","false","","","","","","","","","","null","","1703.2999999988824","","1","0","null","null","arrowup","[0.85,0.15,0.675,0.325]","","",""
"sailing-trial","55","538253","0.0-11.0-20.0","","","","false","","","","","","","","","","766.2000000011176","","187.80000000074506","","3","1","arrowright","1","arrowright","[0.85,0.15,0.675,0.325]","","",""
"sailing-trial","56","543865","0.0-11.0-21.0","","","","false","","","","","","","","","","null","","2651","","1","0","null","null","arrowup","[0.85,0.15,0.675,0.325]","","",""
"sailing-trial","57","548604","0.0-11.0-22.0","","","","false","","","","","","","","","","640","","175.09999999962747","","3","1","arrowright","1","arrowright","[0.85,0.15,0.675,0.325]","","",""
"sailing-trial","58","552323","0.0-11.0-23.0","","","","false","","","","","","","","","","null","","1877","","0","1","null","null","arrowup","[0.85,0.15,0.675,0.325]","","",""
"sailing-trial","59","557028","0.0-11.0-24.0","","","","false","","","","","","","","","","774.2000000011176","","578.8999999985099","","3","0","arrowright","1","arrowright","[0.85,0.15,0.675,0.325]","","",""
"sailing-trial","60","560275","0.0-11.0-25.0","","","","false","","","","","","","","","","null","","1924.6000000014901","","1","0","null","null","arrowup","[0.85,0.15,0.675,0.325]","","",""
"sailing-trial","61","565509","0.0-11.0-26.0","","","","false","","","","","","","","","","768.5","","172.60000000149012","","3","0","arrowright","1","arrowright","[0.85,0.15,0.675,0.325]","","",""
"sailing-trial","62","569109","0.0-11.0-27.0","","","","false","","","","","","","","","","null","","2123.4000000003725","","0","0","null","null","arrowup","[0.85,0.15,0.675,0.325]","","",""
"sailing-trial","63","574728","0.0-11.0-28.0","","","","false","","","","","","","","","","740.1999999992549","","567","","1","0","arrowleft","0","arrowright","[0.85,0.15,0.675,0.325]","","",""
"sailing-trial","64","581446","0.0-11.0-29.0","","","","false","","","","","","","","","","null","","3662.800000000745","","0","1","null","null","arrowup","[0.85,0.15,0.675,0.325]","","",""
"sailing-trial","65","587012","0.0-11.0-30.0","","","","false","","","","","","","","","","910.9000000003725","","347.7999999988824","","1","0","arrowleft","0","arrowright","[0.85,0.15,0.675,0.325]","","",""
"sailing-trial","66","590529","0.0-11.0-31.0","","","","false","","","","","","","","","","null","","1477.8999999985099","","2","1","null","null","arrowup","[0.85,0.15,0.675,0.325]","","",""
"sailing-trial","67","596497","0.0-11.0-32.0","","","","false","","","","","","","","","","1303.0999999996275","","367.5","","1","0","arrowleft","0","arrowright","[0.85,0.15,0.675,0.325]","","",""
"sailing-trial","68","599726","0.0-11.0-33.0","","","","false","","","","","","","","","","null","","1972.699999999255","","1","0","null","null","arrowup","[0.85,0.15,0.675,0.325]","","",""
"sailing-trial","69","604528","0.0-11.0-34.0","","","","false","","","","","","","","","","936.8000000007451","","406","","1","0","arrowleft","0","arrowright","[0.85,0.15,0.675,0.325]","","",""
"sailing-trial","70","607806","0.0-11.0-35.0","","","","false","","","","","","","","","","null","","1277.300000000745","","0","0","null","null","arrowup","[0.85,0.15,0.675,0.325]","","",""
"sailing-trial","71","613619","0.0-11.0-36.0","","","","false","","","","","","","","","","1343","","419","","0","1","arrowleft","0","arrowleft","[0.85,0.15,0.675,0.325]","","",""
"sailing-trial","72","617219","0.0-11.0-37.0","","","","false","","","","","","","","","","null","","1502.5999999996275","","3","1","null","null","arrowup","[0.85,0.15,0.675,0.325]","","",""
"sailing-trial","73","622254","0.0-11.0-38.0","","","","false","","","","","","","","","","1444.9000000003725","","26.200000001117587","","0","1","arrowleft","0","arrowleft","[0.675,0.325,0.85,0.15]","","",""
"sailing-trial","74","626923","0.0-11.0-39.0","","","","false","","","","","","","","","","null","","1933.2000000011176","","2","1","null","null","arrowup","[0.675,0.325,0.85,0.15]","","",""
"sailing-trial","75","633491","0.0-11.0-40.0","","","","false","","","","","","","","","","1651.9000000003725","","341.1000000014901","","0","0","arrowleft","0","arrowleft","[0.675,0.325,0.85,0.15]","","",""
"sailing-trial","76","637930","0.0-11.0-41.0","","","","false","","","","","","","","","","null","","2111.800000000745","","3","0","null","null","arrowup","[0.675,0.325,0.85,0.15]","","",""
"sailing-trial","77","643562","0.0-11.0-42.0","","","","false","","","","","","","","","","1538.7000000011176","","363.6000000014901","","0","1","arrowleft","0","arrowleft","[0.675,0.325,0.85,0.15]","","",""
"sailing-trial","78","647560","0.0-11.0-43.0","","","","false","","","","","","","","","","null","","1575.4000000003725","","2","1","null","null","arrowup","[0.675,0.325,0.85,0.15]","","",""
"sailing-trial","79","654746","0.0-11.0-44.0","","","","false","","","","","","","","","","1221.2000000011176","","127.39999999850988","","0","1","arrowleft","0","arrowleft","[0.675,0.325,0.85,0.15]","","",""
"sailing-trial","80","658750","0.0-11.0-45.0","","","","false","","","","","","","","","","null","","2007.4000000003725","","1","0","null","null","arrowup","[0.675,0.325,0.85,0.15]","","",""
"sailing-trial","81","663715","0.0-11.0-46.0","","","","false","","","","","","","","","","890.5","","214.09999999962747","","0","1","arrowleft","0","arrowleft","[0.675,0.325,0.85,0.15]","","",""
"sailing-trial","82","667733","0.0-11.0-47.0","","","","false","","","","","","","","","","null","","2048.0999999996275","","0","0","null","null","arrowup","[0.675,0.325,0.85,0.15]","","",""
"sailing-trial","83","674068","0.0-11.0-48.0","","","","false","","","","","","","","","","1574.800000000745","","255.80000000074506","","0","1","arrowleft","0","arrowleft","[0.675,0.325,0.85,0.15]","","",""
"sailing-trial","84","679498","0.0-11.0-49.0","","","","false","","","","","","","","","","null","","3183","","1","0","null","null","arrowup","[0.675,0.325,0.85,0.15]","","",""
"sailing-trial","85","684688","0.0-11.0-50.0","","","","false","","","","","","","","","","1374.2000000011176","","25.90000000037253","","0","0","arrowleft","0","arrowleft","[0.675,0.325,0.85,0.15]","","",""
"sailing-trial","86","688286","0.0-11.0-51.0","","","","false","","","","","","","","","","null","","1065.4000000003725","","0","1","null","null","arrowup","[0.675,0.325,0.85,0.15]","","",""
"sailing-trial","87","692845","0.0-11.0-52.0","","","","false","","","","","","","","","","593.5999999996275","","456.09999999962747","","0","0","arrowleft","0","arrowleft","[0.675,0.325,0.85,0.15]","","",""
"sailing-trial","88","695193","0.0-11.0-53.0","","","","false","","","","","","","","","","null","","893.1999999992549","","1","0","null","null","arrowup","[0.675,0.325,0.85,0.15]","","",""
"sailing-trial","89","700572","0.0-11.0-54.0","","","","false","","","","","","","","","","590.3000000007451","","533.0999999996275","","0","1","arrowleft","0","arrowleft","[0.675,0.325,0.85,0.15]","","",""
"sailing-trial","90","703505","0.0-11.0-55.0","","","","false","","","","","","","","","","null","","1328.5","","3","0","null","null","arrowup","[0.675,0.325,0.85,0.15]","","",""
"sailing-trial","91","709292","0.0-11.0-56.0","","","","false","","","","","","","","","","706.7999999988824","","126.60000000149012","","0","1","arrowleft","0","arrowleft","[0.675,0.325,0.85,0.15]","","",""
"sailing-trial","92","712287","0.0-11.0-57.0","","","","false","","","","","","","","","","null","","1246.9000000003725","","3","0","null","null","arrowup","[0.675,0.325,0.85,0.15]","","",""
"sailing-trial","93","716810","0.0-11.0-58.0","","","","false","","","","","","","","","","666.4000000003725","","334.59999999962747","","0","1","arrowleft","0","arrowleft","[0.675,0.325,0.85,0.15]","","",""
"sailing-trial","94","720459","0.0-11.0-59.0","","","","false","","","","","","","","","","null","","1666.9000000003725","","1","0","null","null","arrowup","[0.675,0.325,0.85,0.15]","","",""
"sailing-trial","95","728064","0.0-11.0-60.0","","","","false","","","","","","","","","","3712.4000000003725","","67.09999999962747","","0","1","arrowleft","0","arrowleft","[0.675,0.325,0.85,0.15]","","",""
"sailing-trial","96","732120","0.0-11.0-61.0","","","","false","","","","","","","","","","null","","1310.4000000003725","","0","0","null","null","arrowup","[0.675,0.325,0.85,0.15]","","",""
"sailing-trial","97","739483","0.0-11.0-62.0","","","","false","","","","","","","","","","1157.3999999985099","","1978.6000000014901","","0","1","arrowleft","0","arrowleft","[0.85,0.15,0.675,0.325]","","",""
"sailing-trial","98","744250","0.0-11.0-63.0","","","","false","","","","","","","","","","null","","2074","","3","1","null","null","arrowup","[0.85,0.15,0.675,0.325]","","",""
"sailing-trial","99","749202","0.0-11.0-64.0","","","","false","","","","","","","","","","738.2999999988824","","239","","0","1","arrowleft","0","arrowleft","[0.85,0.15,0.675,0.325]","","",""
"sailing-trial","100","752868","0.0-11.0-65.0","","","","false","","","","","","","","","","null","","2100.4000000003725","","1","0","null","null","arrowup","[0.85,0.15,0.675,0.325]","","",""
"sailing-trial","101","757086","0.0-11.0-66.0","","","","false","","","","","","","","","","733.0999999996275","","88.39999999850988","","0","1","arrowleft","0","arrowleft","[0.85,0.15,0.675,0.325]","","",""
"sailing-trial","102","760607","0.0-11.0-67.0","","","","false","","","","","","","","","","null","","1611.5","","3","1","null","null","arrowup","[0.85,0.15,0.675,0.325]","","",""
"sailing-trial","103","764523","0.0-11.0-68.0","","","","false","","","","","","","","","","622.2000000011176","","18.800000000745058","","0","1","arrowleft","0","arrowleft","[0.85,0.15,0.675,0.325]","","",""
"sailing-trial","104","768472","0.0-11.0-69.0","","","","false","","","","","","","","","","null","","1088.2000000011176","","2","1","null","null","arrowup","[0.85,0.15,0.675,0.325]","","",""
"sailing-trial","105","774225","0.0-11.0-70.0","","","","false","","","","","","","","","","1135.5","","961.5","","0","1","arrowleft","0","arrowleft","[0.85,0.15,0.675,0.325]","","",""
"sailing-trial","106","777524","0.0-11.0-71.0","","","","false","","","","","","","","","","null","","1062.4000000003725","","2","1","null","null","arrowup","[0.85,0.15,0.675,0.325]","","",""
"sailing-trial","107","782176","0.0-11.0-72.0","","","","false","","","","","","","","","","1235.7000000011176","","15.800000000745058","","0","1","arrowleft","0","arrowleft","[0.85,0.15,0.675,0.325]","","",""
"sailing-trial","108","786733","0.0-11.0-73.0","","","","false","","","","","","","","","","null","","2898.4000000003725","","2","0","null","null","arrowup","[0.85,0.15,0.675,0.325]","","",""
"sailing-trial","109","792312","0.0-11.0-74.0","","","","false","","","","","","","","","","1083","","79.09999999962747","","0","1","arrowleft","0","arrowleft","[0.85,0.15,0.675,0.325]","","",""
"sailing-trial","110","795463","0.0-11.0-75.0","","","","false","","","","","","","","","","null","","1086.800000000745","","0","1","null","null","arrowup","[0.85,0.15,0.675,0.325]","","",""
"sailing-trial","111","800914","0.0-11.0-76.0","","","","false","","","","","","","","","","1436.7999999988824","","48.30000000074506","","0","1","arrowleft","0","arrowleft","[0.85,0.15,0.675,0.325]","","",""
"sailing-trial","112","805130","0.0-11.0-77.0","","","","false","","","","","","","","","","null","","908.5","","3","1","null","null","arrowup","[0.85,0.15,0.675,0.325]","","",""
"sailing-trial","113","810248","0.0-11.0-78.0","","","","false","","","","","","","","","","588.8000000007451","","346.80000000074506","","0","1","arrowleft","0","arrowleft","[0.85,0.15,0.675,0.325]","","",""
"sailing-trial","114","813182","0.0-11.0-79.0","","","","false","","","","","","","","","","null","","1154","","3","1","null","null","arrowup","[0.85,0.15,0.675,0.325]","","",""
"sailing-trial","115","817465","0.0-11.0-80.0","","","","false","","","","","","","","","","669.5","","462","","0","1","arrowleft","0","arrowleft","[0.675,0.325,0.85,0.15]","","",""
"sailing-trial","116","821487","0.0-11.0-81.0","","","","false","","","","","","","","","","null","","2075.4000000003725","","3","0","null","null","arrowup","[0.675,0.325,0.85,0.15]","","",""
"sailing-trial","117","825936","0.0-11.0-82.0","","","","false","","","","","","","","","","561.9000000003725","","425.2000000011176","","0","1","arrowleft","0","arrowleft","[0.675,0.325,0.85,0.15]","","",""
"sailing-trial","118","829861","0.0-11.0-83.0","","","","false","","","","","","","","","","null","","2117.699999999255","","1","0","null","null","arrowup","[0.675,0.325,0.85,0.15]","","",""
"sailing-trial","119","835505","0.0-11.0-84.0","","","","false","","","","","","","","","","930.8000000007451","","421.2000000011176","","0","0","arrowleft","0","arrowleft","[0.675,0.325,0.85,0.15]","","",""
"sailing-trial","120","840889","0.0-11.0-85.0","","","","false","","","","[{""event"":""fullscreenenter"",""trial"":3,""time"":18745},{""event"":""fullscreenexit"",""trial"":121,""time"":843428}]","false","","","","","null","","2352.2999999988824","","1","1","null","null","arrowup","[0.675,0.325,0.85,0.15]","","",""
"sailing-trial","121","850575","0.0-11.0-86.0","","","","false","","","","","","","","","","4476.699999999255","","770.3000000007451","","0","1","arrowleft","0","arrowleft","[0.675,0.325,0.85,0.15]","","",""
"sailing-trial","122","857105","0.0-11.0-87.0","","","","false","","","","","","","","","","null","","4645.5","","1","0","null","null","arrowup","[0.675,0.325,0.85,0.15]","","",""
"sailing-trial","123","863212","0.0-11.0-88.0","","","","false","","","","","","","","","","2113.199999999255","","88.89999999850988","","0","1","arrowleft","0","arrowleft","[0.675,0.325,0.85,0.15]","","",""
"sailing-trial","124","868129","0.0-11.0-89.0","","","","false","","","","","","","","","","null","","1988.5","","0","1","null","null","arrowup","[0.675,0.325,0.85,0.15]","","",""
"sailing-trial","125","876130","0.0-11.0-90.0","","","","false","","","","","","","","","","1836.5","","382","","0","1","arrowleft","0","arrowleft","[0.675,0.325,0.85,0.15]","","",""
"sailing-trial","126","882877","0.0-11.0-91.0","","","","false","","","","","","","","","","null","","4515.5999999996275","","1","0","null","null","arrowup","[0.675,0.325,0.85,0.15]","","",""
"sailing-trial","127","891701","0.0-11.0-92.0","","","","false","","","","","","","","","","2675.699999999255","","1027.8999999985099","","0","1","arrowleft","0","arrowleft","[0.675,0.325,0.85,0.15]","","",""
"sailing-trial","128","896719","0.0-11.0-93.0","","","","false","","","","","","","","","","null","","2018.0999999996275","","3","0","null","null","arrowup","[0.675,0.325,0.85,0.15]","","",""
"sailing-trial","129","902420","0.0-11.0-94.0","","","","false","","","","","","","","","","1360","","451.30000000074506","","0","1","arrowleft","0","arrowleft","[0.675,0.325,0.85,0.15]","","",""
"sailing-trial","130","908738","0.0-11.0-95.0","","","","false","","","","","","","","","","null","","3209.4000000003725","","2","1","null","null","arrowup","[0.675,0.325,0.85,0.15]","","",""
"sailing-trial","131","916840","0.0-11.0-96.0","","","","false","","","","","","","","","","3278.4000000003725","","1280.7000000011176","","0","1","arrowleft","0","arrowleft","[0.675,0.325,0.85,0.15]","","",""
"sailing-trial","132","920524","0.0-11.0-97.0","","","","false","","","","","","","","","","null","","1912.800000000745","","0","0","null","null","arrowup","[0.675,0.325,0.85,0.15]","","",""
"sailing-trial","133","925124","0.0-11.0-98.0","","","","false","","","","","","","","","","683.8000000007451","","109.60000000149012","","0","1","arrowleft","0","arrowleft","[0.675,0.325,0.85,0.15]","","",""
"sailing-trial","134","928860","0.0-11.0-99.0","","","","false","","","","","","","","","","null","","1256","","2","1","null","null","arrowup","[0.675,0.325,0.85,0.15]","","",""
"sailing-trial","135","933512","0.0-11.0-100.0","","","","false","","","","","","","","","","779.9000000003725","","222.40000000037253","","0","1","arrowleft","0","arrowleft","[0.85,0.15,0.675,0.325]","","",""
"sailing-trial","136","937578","0.0-11.0-101.0","","","","false","","","","","","","","","","null","","1066.1000000014901","","2","0","null","null","arrowup","[0.85,0.15,0.675,0.325]","","",""
"sailing-trial","137","943021","0.0-11.0-102.0","","","","false","","","","","","","","","","1283.9000000003725","","78.09999999962747","","0","0","arrowleft","0","arrowleft","[0.85,0.15,0.675,0.325]","","",""
"sailing-trial","138","946714","0.0-11.0-103.0","","","","false","","","","","","","","","","null","","815","","1","0","null","null","arrowup","[0.85,0.15,0.675,0.325]","","",""
"sailing-trial","139","951778","0.0-11.0-104.0","","","","false","","","","","","","","","","1179.2999999988824","","290.69999999925494","","0","0","arrowleft","0","arrowleft","[0.85,0.15,0.675,0.325]","","",""
"sailing-trial","140","954650","0.0-11.0-105.0","","","","false","","","","","","","","","","null","","937.4000000003725","","2","1","null","null","arrowup","[0.85,0.15,0.675,0.325]","","",""
"sailing-trial","141","960916","0.0-11.0-106.0","","","","false","","","","","","","","","","1004.4000000003725","","300.90000000037253","","0","0","arrowleft","0","arrowleft","[0.85,0.15,0.675,0.325]","","",""
"sailing-trial","142","963956","0.0-11.0-107.0","","","","false","","","","","","","","","","null","","1485.5999999996275","","1","0","null","null","arrowup","[0.85,0.15,0.675,0.325]","","",""
"sailing-trial","143","969373","0.0-11.0-108.0","","","","false","","","","","","","","","","546.0999999996275","","527.3000000007451","","3","0","arrowright","1","arrowright","[0.85,0.15,0.675,0.325]","","",""
"sailing-trial","144","972057","0.0-11.0-109.0","","","","false","","","","","","","","","","null","","1310.4000000003725","","3","0","null","null","arrowup","[0.85,0.15,0.675,0.325]","","",""
"sailing-trial","145","976921","0.0-11.0-110.0","","","","false","","","","","","","","","","1280.5999999996275","","87.40000000037253","","2","1","arrowright","1","arrowleft","[0.85,0.15,0.675,0.325]","","",""
"sailing-trial","146","980074","0.0-11.0-111.0","","","","false","","","","","","","","","","null","","1525.7000000011176","","1","0","null","null","arrowup","[0.85,0.15,0.675,0.325]","","",""
"sailing-trial","147","984191","0.0-11.0-112.0","","","","false","","","","","","","","","","727","","50.79999999888241","","2","1","arrowright","1","arrowleft","[0.85,0.15,0.675,0.325]","","",""
"sailing-trial","148","986706","0.0-11.0-113.0","","","","false","","","","","","","","","","null","","741.1000000014901","","0","1","null","null","arrowup","[0.85,0.15,0.675,0.325]","","",""
"sailing-trial","149","990824","0.0-11.0-114.0","","","","false","","","","","","","","","","382.2999999988824","","273.40000000037253","","2","1","arrowright","1","arrowleft","[0.85,0.15,0.675,0.325]","","",""
"sailing-trial","150","993508","0.0-11.0-115.0","","","","false","","","","","","","","","","null","","955.3000000007451","","0","1","null","null","arrowup","[0.85,0.15,0.675,0.325]","","",""
"sailing-trial","151","998060","0.0-11.0-116.0","","","","false","","","","","","","","","","665.0999999996275","","321.69999999925494","","0","1","arrowleft","0","arrowleft","[0.675,0.325,0.85,0.15]","","",""
"sailing-trial","152","1001327","0.0-11.0-117.0","","","","false","","","","","","","","","","null","","1582.0999999996275","","0","1","null","null","arrowup","[0.675,0.325,0.85,0.15]","","",""
"sailing-trial","153","1005044","0.0-11.0-118.0","","","","false","","","","","","","","","","499.69999999925494","","66.90000000037253","","2","1","arrowright","1","arrowleft","[0.675,0.325,0.85,0.15]","","",""
"sailing-trial","154","1007295","0.0-11.0-119.0","","","","false","","","","","","","","","","null","","933.1999999992549","","3","0","null","null","arrowup","[0.675,0.325,0.85,0.15]","","",""
"sailing-trial","155","1011615","0.0-11.0-120.0","","","","false","","","","","","","","","","608.8999999985099","","33.40000000037253","","2","1","arrowright","1","arrowleft","[0.675,0.325,0.85,0.15]","","",""
"sailing-trial","156","1014111","0.0-11.0-121.0","","","","false","","","","","","","","","","null","","633.6999999992549","","0","1","null","null","arrowup","[0.675,0.325,0.85,0.15]","","",""
"sailing-trial","157","1018579","0.0-11.0-122.0","","","","false","","","","","","","","","","978.2999999988824","","38.90000000037253","","2","1","arrowright","1","arrowleft","[0.675,0.325,0.85,0.15]","","",""
"sailing-trial","158","1023731","0.0-11.0-123.0","","","","false","","","","","","","","","","null","","2154.39999999851","","1","0","null","null","arrowup","[0.675,0.325,0.85,0.15]","","",""
"sailing-trial","159","1031150","0.0-11.0-124.0","","","","false","","","","","","","","","","3222","","288.80000000074506","","2","1","arrowright","1","arrowleft","[0.675,0.325,0.85,0.15]","","",""
"sailing-trial","160","1034208","0.0-11.0-125.0","","","","false","","","","","","","","","","null","","1180","","3","0","null","null","arrowup","[0.675,0.325,0.85,0.15]","","",""
"sailing-trial","161","1038619","0.0-11.0-126.0","","","","false","","","","","","","","","","529.2999999988824","","304.3999999985099","","2","1","arrowright","1","arrowleft","[0.675,0.325,0.85,0.15]","","",""
"sailing-trial","162","1041853","0.0-11.0-127.0","","","","false","","","","","","","","","","null","","1424.4000000003725","","0","1","null","null","arrowup","[0.675,0.325,0.85,0.15]","","",""
"sailing-trial","163","1045434","0.0-11.0-128.0","","","","false","","","","","","","","","","578.0999999996275","","3.900000000372529","","2","0","arrowright","1","arrowleft","[0.675,0.325,0.85,0.15]","","",""
"sailing-trial","164","1048013","0.0-11.0-129.0","","","","false","","","","","","","","","","null","","919.9000000003725","","3","0","null","null","arrowup","[0.675,0.325,0.85,0.15]","","",""
"sailing-trial","165","1052137","0.0-11.0-130.0","","","","false","","","","","","","","","","352.90000000037253","","405.69999999925494","","2","1","arrowright","1","arrowleft","[0.675,0.325,0.85,0.15]","","",""
"sailing-trial","166","1054056","0.0-11.0-131.0","","","","false","","","","","","","","","","null","","152.90000000037253","","0","1","null","null","arrowup","[0.675,0.325,0.85,0.15]","","",""
"sailing-trial","167","1057373","0.0-11.0-132.0","","","","false","","","","","","","","","","303.09999999962747","","250.60000000149012","","2","1","arrowright","1","arrowleft","[0.675,0.325,0.85,0.15]","","",""
"sailing-trial","168","1059255","0.0-11.0-133.0","","","","false","","","","","","","","","","null","","184.19999999925494","","3","0","null","null","arrowup","[0.675,0.325,0.85,0.15]","","",""
"sailing-trial","169","1062227","0.0-11.0-134.0","","","","false","","","","","","","","","","549.6999999992549","","15.400000000372529","","2","0","arrowright","1","arrowleft","[0.85,0.15,0.675,0.325]","","",""
"sailing-trial","170","1063711","0.0-11.0-135.0","","","","false","","","","","","","","","","null","","384.40000000037253","","1","0","null","null","arrowup","[0.85,0.15,0.675,0.325]","","",""
"sailing-trial","171","1067406","0.0-11.0-136.0","","","","false","","","","","","","","","","153.59999999962747","","16.899999998509884","","2","1","arrowright","1","arrowleft","[0.85,0.15,0.675,0.325]","","",""
"sailing-trial","172","1070941","0.0-11.0-137.0","","","","false","","","","","","","","","","null","","1574.2000000011176","","2","1","null","null","arrowup","[0.85,0.15,0.675,0.325]","","",""
"sailing-trial","173","1074644","0.0-11.0-138.0","","","","false","","","","","","","","","","356.40000000037253","","443.69999999925494","","2","1","arrowright","1","arrowleft","[0.85,0.15,0.675,0.325]","","",""
"sailing-trial","174","1076428","0.0-11.0-139.0","","","","false","","","","","","","","","","null","","102.40000000037253","","3","1","null","null","arrowup","[0.85,0.15,0.675,0.325]","","",""
"sailing-trial","175","1080345","0.0-11.0-140.0","","","","false","","","","","","","","","","3.399999998509884","","208.69999999925494","","2","1","arrowright","1","arrowleft","[0.85,0.15,0.675,0.325]","","",""
"sailing-trial","176","1082072","0.0-11.0-141.0","","","","false","","","","","","","","","","null","","149.69999999925494","","3","0","null","null","arrowup","[0.85,0.15,0.675,0.325]","","",""
"sailing-trial","177","1085274","0.0-11.0-142.0","","","","false","","","","","","","","","","225.7000000011176","","167.5","","2","0","arrowright","1","arrowleft","[0.85,0.15,0.675,0.325]","","",""
"sailing-trial","178","1087426","0.0-11.0-143.0","","","","false","","","","","","","","","","null","","1055.8999999985099","","3","0","null","null","arrowup","[0.85,0.15,0.675,0.325]","","",""
"sailing-trial","179","1092882","0.0-11.0-144.0","","","","false","","","","","","","","","","1136.5999999996275","","61.79999999888241","","0","1","arrowleft","0","arrowleft","[0.85,0.15,0.675,0.325]","","",""
"sailing-trial","180","1097666","0.0-11.0-145.0","","","","false","","","","","","","","","","null","","2375","","0","1","null","null","arrowup","[0.85,0.15,0.675,0.325]","","",""
"sailing-trial","181","1101465","0.0-11.0-146.0","","","","false","","","","","","","","","","189.89999999850988","","138.80000000074506","","0","1","arrowleft","0","arrowleft","[0.85,0.15,0.675,0.325]","","",""
"sailing-trial","182","1102988","0.0-11.0-147.0","","","","false","","","","","","","","","","null","","79.39999999850988","","2","0","null","null","arrowup","[0.85,0.15,0.675,0.325]","","",""
"sailing-trial","183","1107616","0.0-11.0-148.0","","","","false","","","","","","","","","","311.19999999925494","","358.09999999962747","","0","1","arrowleft","0","arrowleft","[0.85,0.15,0.675,0.325]","","",""
"sailing-trial","184","1111119","0.0-11.0-149.0","","","","false","","","","","","","","","","null","","1745.0999999996275","","1","1","null","null","arrowup","[0.85,0.15,0.675,0.325]","","",""
"sailing-trial","185","1114451","0.0-11.0-150.0","","","","false","","","","","","","","","","0.5","","380.09999999962747","","0","1","arrowleft","0","arrowleft","[0.85,0.15,0.675,0.325]","","",""
"sailing-trial","186","1116136","0.0-11.0-151.0","","","","false","","","","","","","","","","null","","46.59999999962747","","2","1","null","null","arrowup","[0.85,0.15,0.675,0.325]","","",""
"sailing-trial","187","1120353","0.0-11.0-152.0","","","","false","","","","","","","","","","131.60000000149012","","73.60000000149012","","0","1","arrowleft","0","arrowleft","[0.675,0.325,0.85,0.15]","","",""
"sailing-trial","188","1122053","0.0-11.0-153.0","","","","false","","","","","","","","","","null","","89","","0","1","null","null","arrowup","[0.675,0.325,0.85,0.15]","","",""
"sailing-trial","189","1124592","0.0-11.0-154.0","","","","false","","","","","","","","","","175","","259.59999999962747","","0","0","arrowleft","0","arrowleft","[0.675,0.325,0.85,0.15]","","",""
"sailing-trial","190","1127006","0.0-11.0-155.0","","","","false","","","","","","","","","","null","","603.5","","3","1","null","null","arrowup","[0.675,0.325,0.85,0.15]","","",""
"sailing-trial","191","1130281","0.0-11.0-156.0","","","","false","","","","","","","","","","27.800000000745058","","64.80000000074506","","0","0","arrowleft","0","arrowleft","[0.675,0.325,0.85,0.15]","","",""
"sailing-trial","192","1132533","0.0-11.0-157.0","","","","false","","","","","","","","","","null","","1083.9000000003725","","1","0","null","null","arrowup","[0.675,0.325,0.85,0.15]","","",""
"sailing-trial","193","1135189","0.0-11.0-158.0","","","","false","","","","","","","","","","336.5","","132.69999999925494","","0","0","arrowleft","0","arrowleft","[0.675,0.325,0.85,0.15]","","",""
"sailing-trial","194","1138656","0.0-11.0-159.0","","","","false","","","","","","","","","","null","","1210.5999999996275","","2","1","null","null","arrowup","[0.675,0.325,0.85,0.15]","","",""
"sailing-trial","195","1143210","0.0-11.0-160.0","","","","false","","","","","","","","","","244.69999999925494","","324.90000000037253","","2","1","arrowright","1","arrowleft","[0.675,0.325,0.85,0.15]","","",""
"sailing-trial","196","1146094","0.0-11.0-161.0","","","","false","","","","","","","","","","null","","1063","","1","1","null","null","arrowup","[0.675,0.325,0.85,0.15]","","",""
"sailing-trial","197","1150477","0.0-11.0-162.0","","","","false","","","","","","","","","","578.5999999996275","","81.59999999962747","","2","1","arrowright","1","arrowleft","[0.675,0.325,0.85,0.15]","","",""
"sailing-trial","198","1153446","0.0-11.0-163.0","","","","false","","","","","","","","","","null","","1301.5","","2","1","null","null","arrowup","[0.675,0.325,0.85,0.15]","","",""
"sailing-trial","199","1157063","0.0-11.0-164.0","","","","false","","","","","","","","","","446.19999999925494","","15.400000000372529","","2","1","arrowright","1","arrowleft","[0.675,0.325,0.85,0.15]","","",""
"sailing-trial","200","1160421","0.0-11.0-165.0","","","","false","","","","","","","","","","null","","2126.800000000745","","3","0","null","null","arrowup","[0.675,0.325,0.85,0.15]","","",""
"sailing-trial","201","1164414","0.0-11.0-166.0","","","","false","","","","","","","","","","842.7999999988824","","70.59999999962747","","2","1","arrowright","1","arrowleft","[0.675,0.325,0.85,0.15]","","",""
"sailing-trial","202","1167149","0.0-11.0-167.0","","","","false","","","","","","","","","","null","","919.8000000007451","","1","1","null","null","arrowup","[0.675,0.325,0.85,0.15]","","",""
"sailing-trial","203","1170950","0.0-11.0-168.0","","","","false","","","","","","","","","","299.40000000037253","","132","","2","1","arrowright","1","arrowleft","[0.675,0.325,0.85,0.15]","","",""
"sailing-trial","204","1173351","0.0-11.0-169.0","","","","false","","","","","","","","","","null","","797.0999999996275","","1","1","null","null","arrowup","[0.675,0.325,0.85,0.15]","","",""
"sailing-trial","205","1177118","0.0-11.0-170.0","","","","false","","","","","","","","","","732.3000000007451","","174.10000000149012","","2","1","arrowright","1","arrowleft","[0.675,0.325,0.85,0.15]","","",""
"sailing-trial","206","1180985","0.0-11.0-171.0","","","","false","","","","","","","","","","null","","2295.4000000003725","","2","1","null","null","arrowup","[0.675,0.325,0.85,0.15]","","",""
"sailing-trial","207","1184937","0.0-11.0-172.0","","","","false","","","","","","","","","","603.5","","165.09999999962747","","2","1","arrowright","1","arrowleft","[0.675,0.325,0.85,0.15]","","",""
"sailing-trial","208","1188004","0.0-11.0-173.0","","","","false","","","","","","","","","","null","","1260.5","","0","1","null","null","arrowup","[0.675,0.325,0.85,0.15]","","",""
"sailing-trial","209","1192054","0.0-11.0-174.0","","","","false","","","","","","","","","","388.40000000037253","","137.7000000011176","","2","1","arrowright","1","arrowleft","[0.85,0.15,0.675,0.325]","","",""
"sailing-trial","210","1194246","0.0-11.0-175.0","","","","false","","","","","","","","","","null","","970.4000000003725","","2","0","null","null","arrowup","[0.85,0.15,0.675,0.325]","","",""
"sailing-trial","211","1197483","0.0-11.0-176.0","","","","false","","","","","","","","","","766.2999999988824","","59.69999999925494","","2","0","arrowright","1","arrowleft","[0.85,0.15,0.675,0.325]","","",""
"sailing-trial","212","1200432","0.0-11.0-177.0","","","","false","","","","","","","","","","null","","1861.199999999255","","3","0","null","null","arrowup","[0.85,0.15,0.675,0.325]","","",""
"sailing-trial","213","1204175","0.0-11.0-178.0","","","","false","","","","","","","","","","462.19999999925494","","67.40000000037253","","0","1","arrowleft","0","arrowleft","[0.85,0.15,0.675,0.325]","","",""
"sailing-trial","214","1208458","0.0-11.0-179.0","","","","false","","","","","","","","","","null","","1276.7999999988824","","3","0","null","null","arrowup","[0.85,0.15,0.675,0.325]","","",""
"sailing-trial","215","1214025","0.0-11.0-180.0","","","","false","","","","","","","","","","2122.4000000003725","","93.19999999925494","","0","1","arrowleft","0","arrowleft","[0.85,0.15,0.675,0.325]","","",""
"sailing-trial","216","1217988","0.0-11.0-181.0","","","","false","","","","","","","","","","null","","1814.9000000003725","","0","0","null","null","arrowup","[0.85,0.15,0.675,0.325]","","",""
"sailing-trial","217","1223145","0.0-11.0-182.0","","","","false","","","","","","","","","","1116.8999999985099","","162.09999999962747","","0","1","arrowleft","0","arrowleft","[0.85,0.15,0.675,0.325]","","",""
"sailing-trial","218","1224901","0.0-11.0-183.0","","","","false","","","","","","","","","","null","","697.6999999992549","","1","0","null","null","arrowup","[0.85,0.15,0.675,0.325]","","",""
"sailing-trial","219","1229646","0.0-11.0-184.0","","","","false","","","","","","","","","","616.1999999992549","","694.6999999992549","","0","1","arrowleft","0","arrowleft","[0.85,0.15,0.675,0.325]","","",""
"sailing-trial","220","1231648","0.0-11.0-185.0","","","","false","","","","","","","","","","null","","181.5","","2","1","null","null","arrowup","[0.85,0.15,0.675,0.325]","","",""
"sailing-trial","221","1235048","0.0-11.0-186.0","","","","false","","","","","","","","","","177.19999999925494","","147.2000000011176","","0","1","arrowleft","0","arrowleft","[0.85,0.15,0.675,0.325]","","",""
"sailing-trial","222","1236897","0.0-11.0-187.0","","","","false","","","","","","","","","","null","","60.59999999962747","","0","1","null","null","arrowup","[0.85,0.15,0.675,0.325]","","",""
"sailing-trial","223","1240485","0.0-11.0-188.0","","","","false","","","","","","","","","","132.90000000037253","","64.90000000037253","","0","1","arrowleft","0","arrowleft","[0.85,0.15,0.675,0.325]","","",""
"sailing-trial","224","1241757","0.0-11.0-189.0","","","","false","","","","","","","","","","null","","145.5","","0","0","null","null","arrowup","[0.85,0.15,0.675,0.325]","","",""
"sailing-trial","225","1244655","0.0-11.0-190.0","","","","false","","","","","","","","","","484","","25.200000001117587","","0","0","arrowleft","0","arrowleft","[0.325,0.675,0.15,0.85]","","",""
"sailing-trial","226","1245916","0.0-11.0-191.0","","","","false","","","","","","","","","","null","","132.19999999925494","","1","0","null","null","arrowup","[0.325,0.675,0.15,0.85]","","",""
"sailing-trial","227","1249318","0.0-11.0-192.0","","","","false","","","","","","","","","","128.09999999962747","","163.30000000074506","","0","1","arrowleft","0","arrowleft","[0.325,0.675,0.15,0.85]","","",""
"sailing-trial","228","1251449","0.0-11.0-193.0","","","","false","","","","","","","","","","null","","88.90000000037253","","1","1","null","null","arrowup","[0.325,0.675,0.15,0.85]","","",""
"sailing-trial","229","1254201","0.0-11.0-194.0","","","","false","","","","","","","","","","143.19999999925494","","206","","0","0","arrowleft","0","arrowleft","[0.325,0.675,0.15,0.85]","","",""
"sailing-trial","230","1255518","0.0-11.0-195.0","","","","false","","","","","","","","","","null","","158.09999999962747","","2","0","null","null","arrowup","[0.325,0.675,0.15,0.85]","","",""
"sailing-trial","231","1257887","0.0-11.0-196.0","","","","false","","","","","","","","","","137.19999999925494","","16.300000000745058","","0","0","arrowleft","0","arrowleft","[0.325,0.675,0.15,0.85]","","",""
"sailing-trial","232","1260437","0.0-11.0-197.0","","","","false","","","","","","","","","","null","","206.80000000074506","","2","1","null","null","arrowup","[0.325,0.675,0.15,0.85]","","",""
"sailing-trial","233","1265338","0.0-11.0-198.0","","","","false","","","","","","","","","","198.30000000074506","","111.90000000037253","","0","1","arrowleft","0","arrowleft","[0.325,0.675,0.15,0.85]","","",""
"sailing-trial","234","1269338","0.0-11.0-199.0","","","","false","","","","","","","","","","null","","991.0999999996275","","2","0","null","null","arrowup","[0.325,0.675,0.15,0.85]","","",""
"sailing-trial","235","1273402","0.0-11.0-200.0","","","","false","","","","","","","","","","196.80000000074506","","306.80000000074506","","2","0","arrowright","1","arrowleft","[0.325,0.675,0.15,0.85]","","",""
"sailing-trial","236","1276173","0.0-11.0-201.0","","","","false","","","","","","","","","","null","","996","","1","1","null","null","arrowup","[0.325,0.675,0.15,0.85]","","",""
"sailing-trial","237","1284126","0.0-11.0-202.0","","","","false","","","","","","","","","","2677","","623.8000000007451","","2","0","arrowright","1","arrowleft","[0.325,0.675,0.15,0.85]","","",""
"sailing-trial","238","1288178","0.0-11.0-203.0","","","","false","","","","","","","","","","null","","2252.2000000011176","","0","1","null","null","arrowup","[0.325,0.675,0.15,0.85]","","",""
"sailing-trial","239","1292028","0.0-11.0-204.0","","","","false","","","","","","","","","","654.6999999992549","","39.09999999962747","","3","1","arrowright","1","arrowright","[0.325,0.675,0.15,0.85]","","",""
"sailing-trial","240","1295711","0.0-11.0-205.0","","","","false","","","","","","","","","","null","","2107.7999999988824","","1","1","null","null","arrowup","[0.325,0.675,0.15,0.85]","","",""
"sailing-trial","241","1297980","0.0-11.0-206.0","","","","false","","","","","","","","","","23.200000001117587","","176.7999999988824","","3","0","arrowright","1","arrowright","[0.675,0.325,0.85,0.15]","","",""
"sailing-trial","242","1300698","0.0-11.0-207.0","","","","false","","","","","","","","","","null","","1532.9000000003725","","3","0","null","null","arrowup","[0.675,0.325,0.85,0.15]","","",""
"sailing-trial","243","1307399","0.0-11.0-208.0","","","","false","","","","","","","","","","104.80000000074506","","350.7000000011176","","1","1","arrowleft","0","arrowright","[0.675,0.325,0.85,0.15]","","",""
"sailing-trial","244","1309371","0.0-11.0-209.0","","","","false","","","","","","","","","","null","","918.5999999996275","","3","0","null","null","arrowup","[0.675,0.325,0.85,0.15]","","",""
"sailing-trial","245","1314482","0.0-11.0-210.0","","","","false","","","","","","","","","","556.6999999992549","","221.90000000037253","","1","0","arrowleft","0","arrowright","[0.675,0.325,0.85,0.15]","","",""
"sailing-trial","246","1316916","0.0-11.0-211.0","","","","false","","","","","","","","","","null","","620.9000000003725","","0","1","null","null","arrowup","[0.675,0.325,0.85,0.15]","","",""
"sailing-trial","247","1321216","0.0-11.0-212.0","","","","false","","","","","","","","","","268.40000000037253","","293.80000000074506","","1","1","arrowleft","0","arrowright","[0.675,0.325,0.85,0.15]","","",""
"sailing-trial","248","1323516","0.0-11.0-213.0","","","","false","","","","","","","","","","null","","735.7000000011176","","1","1","null","null","arrowup","[0.675,0.325,0.85,0.15]","","",""
"sailing-trial","249","1327919","0.0-11.0-214.0","","","","false","","","","","","","","","","283.09999999962747","","71.09999999962747","","1","0","arrowleft","0","arrowright","[0.675,0.325,0.85,0.15]","","",""
"sailing-trial","250","1331282","0.0-11.0-215.0","","","","false","","","","","","","","","","null","","1188.0999999996275","","3","1","null","null","arrowup","[0.675,0.325,0.85,0.15]","","",""
"sailing-trial","251","1335509","0.0-11.0-216.0","","","","false","","","","","","","","","","606.8999999985099","","366.30000000074506","","1","0","arrowleft","0","arrowright","[0.675,0.325,0.85,0.15]","","",""
"sailing-trial","252","1338205","0.0-11.0-217.0","","","","false","","","","","","","","","","null","","855","","3","1","null","null","arrowup","[0.675,0.325,0.85,0.15]","","",""
"sailing-trial","253","1345724","0.0-11.0-218.0","","","","false","","","","","","","","","","88.19999999925494","","80.79999999888241","","0","1","arrowleft","0","arrowleft","[0.675,0.325,0.85,0.15]","","",""
"sailing-trial","254","1348556","0.0-11.0-219.0","","","","false","","","","","","","","","","null","","991.9000000003725","","2","1","null","null","arrowup","[0.675,0.325,0.85,0.15]","","",""
"sailing-trial","255","1352175","0.0-11.0-220.0","","","","false","","","","","","","","","","215.60000000149012","","6.699999999254942","","0","1","arrowleft","0","arrowleft","[0.675,0.325,0.85,0.15]","","",""
"sailing-trial","256","1354309","0.0-11.0-221.0","","","","false","","","","","","","","","","null","","462.59999999962747","","2","1","null","null","arrowup","[0.675,0.325,0.85,0.15]","","",""
"sailing-trial","257","1357278","0.0-11.0-222.0","","","","false","","","","","","","","","","168.09999999962747","","181.5","","0","1","arrowleft","0","arrowleft","[0.85,0.15,0.675,0.325]","","",""
"sailing-trial","258","1359760","0.0-11.0-223.0","","","","false","","","","","","","","","","null","","215","","0","1","null","null","arrowup","[0.85,0.15,0.675,0.325]","","",""
"sailing-trial","259","1363393","0.0-11.0-224.0","","","","false","","","","","","","","","","246.40000000037253","","179.59999999962747","","0","1","arrowleft","0","arrowleft","[0.85,0.15,0.675,0.325]","","",""
"sailing-trial","260","1364804","0.0-11.0-225.0","","","","false","","","","","","","","","","null","","170.59999999962747","","2","0","null","null","arrowup","[0.85,0.15,0.675,0.325]","","",""
"sailing-trial","261","1368194","0.0-11.0-226.0","","","","false","","","","","","","","","","207.59999999962747","","57.90000000037253","","0","1","arrowleft","0","arrowleft","[0.85,0.15,0.675,0.325]","","",""
"sailing-trial","262","1370456","0.0-11.0-227.0","","","","false","","","","","","","","","","null","","217.7999999988824","","0","0","null","null","arrowup","[0.85,0.15,0.675,0.325]","","",""
"sailing-trial","263","1374064","0.0-11.0-228.0","","","","false","","","","","","","","","","457.69999999925494","","120.70000000111759","","0","1","arrowleft","0","arrowleft","[0.85,0.15,0.675,0.325]","","",""
"sailing-trial","264","1376015","0.0-11.0-229.0","","","","false","","","","","","","","","","null","","178","","0","1","null","null","arrowup","[0.85,0.15,0.675,0.325]","","",""
"sailing-trial","265","1379315","0.0-11.0-230.0","","","","false","","","","","","","","","","71.90000000037253","","118.80000000074506","","0","1","arrowleft","0","arrowleft","[0.85,0.15,0.675,0.325]","","",""
"sailing-trial","266","1380714","0.0-11.0-231.0","","","","false","","","","","","","","","","null","","53","","1","0","null","null","arrowup","[0.85,0.15,0.675,0.325]","","",""
"sailing-trial","267","1383748","0.0-11.0-232.0","","","","false","","","","","","","","","","445.5","","195.19999999925494","","0","0","arrowleft","0","arrowleft","[0.85,0.15,0.675,0.325]","","",""
"sailing-trial","268","1385820","0.0-11.0-233.0","","","","false","","","","","","","","","","null","","215.30000000074506","","2","1","null","null","arrowup","[0.85,0.15,0.675,0.325]","","",""
"sailing-trial","269","1388656","0.0-11.0-234.0","","","","false","","","","","","","","","","146.80000000074506","","37.79999999888241","","0","0","arrowleft","0","arrowleft","[0.85,0.15,0.675,0.325]","","",""
"sailing-trial","270","1390858","0.0-11.0-235.0","","","","false","","","","","","","","","","null","","1039.0999999996275","","1","0","null","null","arrowup","[0.85,0.15,0.675,0.325]","","",""
"sailing-trial","271","1393553","0.0-11.0-236.0","","","","false","","","","","","","","","","160.5","","141.90000000037253","","2","0","arrowright","1","arrowleft","[0.85,0.15,0.675,0.325]","","",""
"sailing-trial","272","1395786","0.0-11.0-237.0","","","","false","","","","","","","","","","null","","1028.5","","3","0","null","null","arrowup","[0.85,0.15,0.675,0.325]","","",""
"sailing-trial","273","1399253","0.0-11.0-238.0","","","","false","","","","","","","","","","319.3999999985099","","110.20000000111759","","2","1","arrowright","1","arrowleft","[0.85,0.15,0.675,0.325]","","",""
"sailing-trial","274","1401238","0.0-11.0-239.0","","","","false","","","","","","","","","","null","","107.09999999962747","","3","1","null","null","arrowup","[0.85,0.15,0.675,0.325]","","",""
"sailing-trial","275","1406237","0.0-11.0-240.0","","","","false","","","","","","","","","","137.69999999925494","","263.90000000037253","","2","1","arrowright","1","arrowleft","[0.675,0.325,0.85,0.15]","","",""
"sailing-trial","276","1407837","0.0-11.0-241.0","","","","false","","","","","","","","","","null","","53.70000000111759","","1","0","null","null","arrowup","[0.675,0.325,0.85,0.15]","","",""
"sailing-trial","277","1412356","0.0-11.0-242.0","","","","false","","","","","","","","","","1179.699999999255","","11.099999999627471","","0","1","arrowleft","0","arrowleft","[0.675,0.325,0.85,0.15]","","",""
"sailing-trial","278","1416124","0.0-11.0-243.0","","","","false","","","","","","","","","","null","","899.4000000003725","","0","1","null","null","arrowup","[0.675,0.325,0.85,0.15]","","",""
"sailing-trial","279","1419657","0.0-11.0-244.0","","","","false","","","","","","","","","","192.90000000037253","","71.30000000074506","","0","1","arrowleft","0","arrowleft","[0.675,0.325,0.85,0.15]","","",""
"sailing-trial","280","1422317","0.0-11.0-245.0","","","","false","","","","","","","","","","null","","1385.2000000011176","","3","0","null","null","arrowup","[0.675,0.325,0.85,0.15]","","",""
"sailing-trial","281","1426608","0.0-11.0-246.0","","","","false","","","","","","","","","","123.40000000037253","","68.09999999962747","","0","1","arrowleft","0","arrowleft","[0.675,0.325,0.85,0.15]","","",""
"sailing-trial","282","1428558","0.0-11.0-247.0","","","","false","","","","","","","","","","null","","588.9000000003725","","3","0","null","null","arrowup","[0.675,0.325,0.85,0.15]","","",""
"sailing-trial","283","1433158","0.0-11.0-248.0","","","","false","","","","","","","","","","374.09999999962747","","113.30000000074506","","0","1","arrowleft","0","arrowleft","[0.675,0.325,0.85,0.15]","","",""
"sailing-trial","284","1435284","0.0-11.0-249.0","","","","false","","","","","","","","","","null","","936","","0","0","null","null","arrowup","[0.675,0.325,0.85,0.15]","","",""
"sailing-trial","285","1438896","0.0-11.0-250.0","","","","false","","","","","","","","","","333.90000000037253","","105.59999999962747","","2","1","arrowright","1","arrowleft","[0.675,0.325,0.85,0.15]","","",""
"sailing-trial","286","1441893","0.0-11.0-251.0","","","","false","","","","","","","","","","null","","1579.0999999996275","","2","0","null","null","arrowup","[0.675,0.325,0.85,0.15]","","",""
"sailing-trial","287","1445264","0.0-11.0-252.0","","","","false","","","","","","","","","","176.09999999962747","","108.30000000074506","","0","1","arrowleft","0","arrowleft","[0.675,0.325,0.85,0.15]","","",""
"sailing-trial","288","1447679","0.0-11.0-253.0","","","","false","","","","","","","","","","null","","847.7999999988824","","1","1","null","null","arrowup","[0.675,0.325,0.85,0.15]","","",""
"sailing-trial","289","1450864","0.0-11.0-254.0","","","","false","","","","","","","","","","101","","140.2999999988824","","2","0","arrowright","1","arrowleft","[0.675,0.325,0.85,0.15]","","",""
"sailing-trial","290","1452956","0.0-11.0-255.0","","","","false","","","","","","","","","","null","","907.3000000007451","","2","0","null","null","arrowup","[0.675,0.325,0.85,0.15]","","",""
"sailing-trial","291","1457601","0.0-11.0-256.0","","","","false","","","","","","","","","","192.90000000037253","","1558.699999999255","","0","1","arrowleft","0","arrowleft","[0.675,0.325,0.85,0.15]","","",""
"sailing-trial","292","1460595","0.0-11.0-257.0","","","","false","","","","","","","","","","null","","1681","","3","0","null","null","arrowup","[0.675,0.325,0.85,0.15]","","",""
"sailing-trial","293","1463701","0.0-11.0-258.0","","","","false","","","","","","","","","","347.80000000074506","","157.60000000149012","","0","0","arrowleft","0","arrowleft","[0.675,0.325,0.85,0.15]","","",""
"sailing-trial","294","1465751","0.0-11.0-259.0","","","","false","","","","","","","","","","null","","785.5999999996275","","1","0","null","null","arrowup","[0.675,0.325,0.85,0.15]","","",""
"sailing-trial","295","1468244","0.0-11.0-260.0","","","","false","","","","","","","","","","245.5","","153.39999999850988","","0","0","arrowleft","0","arrowleft","[0.325,0.675,0.15,0.85]","","",""
"sailing-trial","296","1471006","0.0-11.0-261.0","","","","false","","","","","","","","","","null","","318.2999999988824","","0","0","null","null","arrowup","[0.325,0.675,0.15,0.85]","","",""
"sailing-trial","297","1474067","0.0-11.0-262.0","","","","false","","","","","","","","","","136.59999999962747","","45.40000000037253","","2","1","arrowright","1","arrowleft","[0.325,0.675,0.15,0.85]","","",""
"sailing-trial","298","1476636","0.0-11.0-263.0","","","","false","","","","","","","","","","null","","801.3000000007451","","2","1","null","null","arrowup","[0.325,0.675,0.15,0.85]","","",""
"sailing-trial","299","1479722","0.0-11.0-264.0","","","","false","","","","","","","","","","204.39999999850988","","242.09999999962747","","2","0","arrowright","1","arrowleft","[0.325,0.675,0.15,0.85]","","",""
"sailing-trial","300","1482047","0.0-11.0-265.0","","","","false","","","","","","","","","","null","","1164.5999999996275","","0","0","null","null","arrowup","[0.325,0.675,0.15,0.85]","","",""
"sailing-trial","301","1484884","0.0-11.0-266.0","","","","false","","","","","","","","","","384.09999999962747","","63.70000000111759","","2","0","arrowright","1","arrowleft","[0.325,0.675,0.15,0.85]","","",""
"sailing-trial","302","1486396","0.0-11.0-267.0","","","","false","","","","","","","","","","null","","347.5","","2","0","null","null","arrowup","[0.325,0.675,0.15,0.85]","","",""
"sailing-trial","303","1489256","0.0-11.0-268.0","","","","false","","","","","","","","","","417.59999999962747","","66.69999999925494","","2","0","arrowright","1","arrowleft","[0.325,0.675,0.15,0.85]","","",""
"sailing-trial","304","1493388","0.0-11.0-269.0","","","","false","","","","","","","","","","null","","1465.2000000011176","","1","1","null","null","arrowup","[0.325,0.675,0.15,0.85]","","",""
"sailing-trial","305","1497123","0.0-11.0-270.0","","","","false","","","","","","","","","","791.2000000011176","","77.30000000074506","","1","1","arrowleft","0","arrowright","[0.325,0.675,0.15,0.85]","","",""
"sailing-trial","306","1500024","0.0-11.0-271.0","","","","false","","","","","","","","","","null","","848.8000000007451","","1","1","null","null","arrowup","[0.325,0.675,0.15,0.85]","","",""
"sailing-trial","307","1503192","0.0-11.0-272.0","","","","false","","","","","","","","","","155.5","","146.5","","1","1","arrowleft","0","arrowright","[0.325,0.675,0.15,0.85]","","",""
"sailing-trial","308","1504896","0.0-11.0-273.0","","","","false","","","","","","","","","","null","","615.1999999992549","","2","0","null","null","arrowup","[0.325,0.675,0.15,0.85]","","",""
"sailing-trial","309","1508893","0.0-11.0-274.0","","","","false","","","","","","","","","","672.5999999996275","","322.40000000037253","","1","1","arrowleft","0","arrowright","[0.325,0.675,0.15,0.85]","","",""
"sailing-trial","310","1511415","0.0-11.0-275.0","","","","false","","","","","","","","","","null","","652.3999999985099","","0","0","null","null","arrowup","[0.325,0.675,0.15,0.85]","","",""
"sailing-trial","311","1516211","0.0-11.0-276.0","","","","false","","","","","","","","","","724.3000000007451","","536.2999999988824","","1","1","arrowleft","0","arrowright","[0.325,0.675,0.15,0.85]","","",""
"sailing-trial","312","1520130","0.0-11.0-277.0","","","","false","","","","","","","","","","null","","1568","","3","1","null","null","arrowup","[0.325,0.675,0.15,0.85]","","",""
"sailing-trial","313","1523714","0.0-11.0-278.0","","","","false","","","","","","","","","","128.09999999962747","","153.10000000149012","","1","1","arrowleft","0","arrowright","[0.15,0.85,0.325,0.675]","","",""
"sailing-trial","314","1526929","0.0-11.0-279.0","","","","false","","","","","","","","","","null","","1886.0999999996275","","1","0","null","null","arrowup","[0.15,0.85,0.325,0.675]","","",""
"sailing-trial","315","1531166","0.0-11.0-280.0","","","","false","","","","","","","","","","679.7999999988824","","38.79999999888241","","1","1","arrowleft","0","arrowright","[0.15,0.85,0.325,0.675]","","",""
"sailing-trial","316","1533611","0.0-11.0-281.0","","","","false","","","","","","","","","","null","","909.1999999992549","","0","0","null","null","arrowup","[0.15,0.85,0.325,0.675]","","",""
"sailing-trial","317","1536869","0.0-11.0-282.0","","","","false","","","","","","","","","","444.90000000037253","","17.5","","1","1","arrowleft","0","arrowright","[0.15,0.85,0.325,0.675]","","",""
"sailing-trial","318","1538781","0.0-11.0-283.0","","","","false","","","","","","","","","","null","","562.2000000011176","","1","0","null","null","arrowup","[0.15,0.85,0.325,0.675]","","",""
"sailing-trial","319","1543567","0.0-11.0-284.0","","","","false","","","","","","","","","","148.7999999988824","","989.5","","1","1","arrowleft","0","arrowright","[0.15,0.85,0.325,0.675]","","",""
"sailing-trial","320","1545306","0.0-11.0-285.0","","","","false","","","","","","","","","","null","","649.9000000003725","","3","0","null","null","arrowup","[0.15,0.85,0.325,0.675]","","",""
"sailing-trial","321","1548972","0.0-11.0-286.0","","","","false","","","","","","","","","","408.69999999925494","","169.2000000011176","","1","1","arrowleft","0","arrowright","[0.15,0.85,0.325,0.675]","","",""
"sailing-trial","322","1551420","0.0-11.0-287.0","","","","false","","","","","","","","","","null","","174.10000000149012","","1","1","null","null","arrowup","[0.15,0.85,0.325,0.675]","","",""
"sailing-trial","323","1554556","0.0-11.0-288.0","","","","false","","","","","","","","","","134.7999999988824","","6.800000000745058","","1","1","arrowleft","0","arrowright","[0.15,0.85,0.325,0.675]","","",""
"sailing-trial","324","1556011","0.0-11.0-289.0","","","","false","","","","","","","","","","null","","182.10000000149012","","2","0","null","null","arrowup","[0.15,0.85,0.325,0.675]","","",""
"sailing-trial","325","1564226","0.0-11.0-290.0","","","","false","","","","","","","","","","4404.9000000003725","","55.5","","1","1","arrowleft","0","arrowright","[0.15,0.85,0.325,0.675]","","",""
"sailing-trial","326","1566281","0.0-11.0-291.0","","","","false","","","","","","","","","","null","","906.5999999996275","","0","0","null","null","arrowup","[0.15,0.85,0.325,0.675]","","",""
"sailing-trial","327","1570026","0.0-11.0-292.0","","","","false","","","","","","","","","","555.0999999996275","","162.69999999925494","","1","1","arrowleft","0","arrowright","[0.15,0.85,0.325,0.675]","","",""
"sailing-trial","328","1572493","0.0-11.0-293.0","","","","false","","","","","","","","","","null","","780.5999999996275","","3","1","null","null","arrowup","[0.15,0.85,0.325,0.675]","","",""
"sailing-trial","329","1575760","0.0-11.0-294.0","","","","false","","","","","","","","","","126.29999999888241","","66.69999999925494","","1","1","arrowleft","0","arrowright","[0.15,0.85,0.325,0.675]","","",""
"sailing-trial","330","1578213","0.0-11.0-295.0","","","","false","","","","","","","","","","null","","1175.0999999996275","","1","0","null","null","arrowup","[0.15,0.85,0.325,0.675]","","",""
"sailing-trial","331","1582446","0.0-11.0-296.0","","","","false","","","","","","","","","","493.30000000074506","","148.09999999962747","","1","1","arrowleft","0","arrowright","[0.325,0.675,0.15,0.85]","","",""
"sailing-trial","332","1584328","0.0-11.0-297.0","","","","false","","","","","","","","","","null","","258.09999999962747","","2","0","null","null","arrowup","[0.325,0.675,0.15,0.85]","","",""
"sailing-trial","333","1588680","0.0-11.0-298.0","","","","false","","","","","","","","","","936.5","","177","","1","1","arrowleft","0","arrowright","[0.325,0.675,0.15,0.85]","","",""
"sailing-trial","334","1591580","0.0-11.0-299.0","","","","false","","","","","","","","","","null","","1694.9000000003725","","3","0","null","null","arrowup","[0.325,0.675,0.15,0.85]","","",""
"sailing-trial","335","1594899","0.0-11.0-300.0","","","","false","","","","","","","","","","613","","314","","1","0","arrowleft","0","arrowright","[0.325,0.675,0.15,0.85]","","",""
"sailing-trial","336","1597148","0.0-11.0-301.0","","","","false","","","","","","","","","","null","","497.5","","1","1","null","null","arrowup","[0.325,0.675,0.15,0.85]","","",""
"sailing-trial","337","1601534","0.0-11.0-302.0","","","","false","","","","","","","","","","415.2000000011176","","345.6000000014901","","1","1","arrowleft","0","arrowright","[0.325,0.675,0.15,0.85]","","",""
"sailing-trial","338","1604649","0.0-11.0-303.0","","","","false","","","","","","","","","","null","","979.0999999996275","","2","0","null","null","arrowup","[0.325,0.675,0.15,0.85]","","",""
"sailing-trial","339","1608632","0.0-11.0-304.0","","","","false","","","","","","","","","","563.5999999996275","","52.79999999888241","","1","1","arrowleft","0","arrowright","[0.325,0.675,0.15,0.85]","","",""
"sailing-trial","340","1613537","0.0-11.0-305.0","","","","false","","","","","","","","","","null","","1821.7999999988824","","3","1","null","null","arrowup","[0.325,0.675,0.15,0.85]","","",""
"sailing-trial","341","1618270","0.0-11.0-306.0","","","","false","","","","","","","","","","852.1999999992549","","41.30000000074506","","1","1","arrowleft","0","arrowright","[0.325,0.675,0.15,0.85]","","",""
"sailing-trial","342","1622821","0.0-11.0-307.0","","","","false","","","","","","","","","","null","","2008.300000000745","","0","1","null","null","arrowup","[0.325,0.675,0.15,0.85]","","",""
"sailing-trial","343","1627623","0.0-11.0-308.0","","","","false","","","","","","","","","","536.1000000014901","","482","","1","1","arrowleft","0","arrowright","[0.325,0.675,0.15,0.85]","","",""
"sailing-trial","344","1631696","0.0-11.0-309.0","","","","false","","","","","","","","","","null","","2112.5999999996275","","2","0","null","null","arrowup","[0.325,0.675,0.15,0.85]","","",""
"sailing-trial","345","1635674","0.0-11.0-310.0","","","","false","","","","","","","","","","375.30000000074506","","148.59999999962747","","1","1","arrowleft","0","arrowright","[0.325,0.675,0.15,0.85]","","",""
"sailing-trial","346","1637875","0.0-11.0-311.0","","","","false","","","","","","","","","","null","","468.90000000037253","","1","1","null","null","arrowup","[0.325,0.675,0.15,0.85]","","",""
"sailing-trial","347","1642003","0.0-11.0-312.0","","","","false","","","","","","","","","","1418.5","","14.400000000372529","","1","0","arrowleft","0","arrowright","[0.675,0.325,0.85,0.15]","","",""
"sailing-trial","348","1645696","0.0-11.0-313.0","","","","false","","","","","","","","","","null","","2335.9000000003725","","0","0","null","null","arrowup","[0.675,0.325,0.85,0.15]","","",""
"sailing-trial","349","1650144","0.0-11.0-314.0","","","","false","","","","","","","","","","738.2000000011176","","339.19999999925494","","2","1","arrowright","1","arrowleft","[0.675,0.325,0.85,0.15]","","",""
"sailing-trial","350","1652762","0.0-11.0-315.0","","","","false","","","","","","","","","","null","","1043.5999999996275","","2","1","null","null","arrowup","[0.675,0.325,0.85,0.15]","","",""
"sailing-trial","351","1656062","0.0-11.0-316.0","","","","false","","","","","","","","","","196.7999999988824","","83.09999999962747","","2","1","arrowright","1","arrowleft","[0.675,0.325,0.85,0.15]","","",""
"sailing-trial","352","1657924","0.0-11.0-317.0","","","","false","","","","","","","","","","null","","849.1999999992549","","0","0","null","null","arrowup","[0.675,0.325,0.85,0.15]","","",""
"sailing-trial","353","1663514","0.0-11.0-318.0","","","","false","","","","","","","","","","874.7999999988824","","956.1999999992549","","2","1","arrowright","1","arrowleft","[0.675,0.325,0.85,0.15]","","",""
"sailing-trial","354","1665717","0.0-11.0-319.0","","","","false","","","","","","","","","","null","","483.7999999988824","","2","1","null","null","arrowup","[0.675,0.325,0.85,0.15]","","",""
"sailing-trial","355","1669080","0.0-11.0-320.0","","","","false","","","","","","","","","","409.30000000074506","","125.69999999925494","","2","1","arrowright","1","arrowleft","[0.675,0.325,0.85,0.15]","","",""
"sailing-trial","356","1670891","0.0-11.0-321.0","","","","false","","","","","","","","","","null","","710.5","","3","0","null","null","arrowup","[0.675,0.325,0.85,0.15]","","",""
"sailing-trial","357","1674466","0.0-11.0-322.0","","","","false","","","","","","","","","","475.80000000074506","","14.100000001490116","","2","1","arrowright","1","arrowleft","[0.675,0.325,0.85,0.15]","","",""
"sailing-trial","358","1675916","0.0-11.0-323.0","","","","false","","","","","","","","","","null","","298.5","","0","0","null","null","arrowup","[0.675,0.325,0.85,0.15]","","",""
"sailing-trial","359","1679450","0.0-11.0-324.0","","","","false","","","","","","","","","","432.5","","98.80000000074506","","2","1","arrowright","1","arrowleft","[0.675,0.325,0.85,0.15]","","",""
"sailing-trial","360","1681148","0.0-11.0-325.0","","","","false","","","","","","","","","","null","","193.09999999962747","","3","0","null","null","arrowup","[0.675,0.325,0.85,0.15]","","",""
"sailing-trial","361","1685319","0.0-11.0-326.0","","","","false","","","","","","","","","","413.59999999962747","","72","","2","1","arrowright","1","arrowleft","[0.675,0.325,0.85,0.15]","","",""
"sailing-trial","362","1688153","0.0-11.0-327.0","","","","false","","","","","","","","","","null","","934.4000000003725","","0","1","null","null","arrowup","[0.675,0.325,0.85,0.15]","","",""
"sailing-trial","363","1691921","0.0-11.0-328.0","","","","false","","","","","","","","","","222.09999999962747","","66","","2","1","arrowright","1","arrowleft","[0.15,0.85,0.325,0.675]","","",""
"sailing-trial","364","1693343","0.0-11.0-329.0","","","","false","","","","","","","","","","null","","236.89999999850988","","2","0","null","null","arrowup","[0.15,0.85,0.325,0.675]","","",""
"sailing-trial","365","1696708","0.0-11.0-330.0","","","","false","","","","","","","","","","675.6999999992549","","31.299999998882413","","2","0","arrowright","1","arrowleft","[0.15,0.85,0.325,0.675]","","",""
"sailing-trial","366","1699849","0.0-11.0-331.0","","","","false","","","","","","","","","","null","","1467.8999999985099","","2","0","null","null","arrowup","[0.15,0.85,0.325,0.675]","","",""
"sailing-trial","367","1702940","0.0-11.0-332.0","","","","false","","","","","","","","","","556.6999999992549","","5.700000001117587","","0","0","arrowleft","0","arrowleft","[0.15,0.85,0.325,0.675]","","",""
"sailing-trial","368","1705626","0.0-11.0-333.0","","","","false","","","","","","","","","","null","","1625.9000000003725","","2","0","null","null","arrowup","[0.15,0.85,0.325,0.675]","","",""
"sailing-trial","369","1708007","0.0-11.0-334.0","","","","false","","","","","","","","","","134.5","","133.7999999988824","","0","0","arrowleft","0","arrowleft","[0.15,0.85,0.325,0.675]","","",""
"sailing-trial","370","1710575","0.0-11.0-335.0","","","","false","","","","","","","","","","null","","61.5","","3","1","null","null","arrowup","[0.15,0.85,0.325,0.675]","","",""
"sailing-trial","371","1713208","0.0-11.0-336.0","","","","false","","","","","","","","","","148.2999999988824","","26.5","","3","0","arrowright","1","arrowright","[0.15,0.85,0.325,0.675]","","",""
"sailing-trial","372","1716124","0.0-11.0-337.0","","","","false","","","","","","","","","","null","","1155.199999999255","","1","1","null","null","arrowup","[0.15,0.85,0.325,0.675]","","",""
"sailing-trial","373","1721459","0.0-11.0-338.0","","","","false","","","","","","","","","","624.4000000003725","","112.30000000074506","","3","0","arrowright","1","arrowright","[0.15,0.85,0.325,0.675]","","",""
"sailing-trial","374","1725045","0.0-11.0-339.0","","","","false","","","","","","","","","","null","","560.7999999988824","","3","0","null","null","arrowup","[0.15,0.85,0.325,0.675]","","",""
"sailing-trial","375","1728311","0.0-11.0-340.0","","","","false","","","","","","","","","","57.5","","30","","1","1","arrowleft","0","arrowright","[0.15,0.85,0.325,0.675]","","",""
"sailing-trial","376","1730798","0.0-11.0-341.0","","","","false","","","","","","","","","","null","","703","","3","1","null","null","arrowup","[0.15,0.85,0.325,0.675]","","",""
"sailing-trial","377","1733930","0.0-11.0-342.0","","","","false","","","","","","","","","","0.2000000011175871","","157.10000000149012","","1","1","arrowleft","0","arrowright","[0.15,0.85,0.325,0.675]","","",""
"sailing-trial","378","1736313","0.0-11.0-343.0","","","","false","","","","","","","","","","null","","558.5","","3","1","null","null","arrowup","[0.15,0.85,0.325,0.675]","","",""
"sailing-trial","379","1738552","0.0-11.0-344.0","","","","false","","","","","","","","","","99.39999999850988","","3.400000000372529","","1","0","arrowleft","0","arrowright","[0.15,0.85,0.325,0.675]","","",""
"sailing-trial","380","1742464","0.0-11.0-345.0","","","","false","","","","","","","","","","null","","2141","","0","1","null","null","arrowup","[0.15,0.85,0.325,0.675]","","",""
"sailing-trial","381","1746099","0.0-11.0-346.0","","","","false","","","","","","","","","","547.9000000003725","","104.80000000074506","","1","1","arrowleft","0","arrowright","[0.15,0.85,0.325,0.675]","","",""
"sailing-trial","382","1748950","0.0-11.0-347.0","","","","false","","","","","","","","","","null","","1013.5","","1","1","null","null","arrowup","[0.15,0.85,0.325,0.675]","","",""
"sailing-trial","383","1753416","0.0-11.0-348.0","","","","false","","","","","","","","","","982.2999999988824","","130.09999999962747","","1","1","arrowleft","0","arrowright","[0.325,0.675,0.15,0.85]","","",""
"sailing-trial","384","1756014","0.0-11.0-349.0","","","","false","","","","","","","","","","null","","1510.0999999996275","","2","0","null","null","arrowup","[0.325,0.675,0.15,0.85]","","",""
"sailing-trial","385","1759853","0.0-11.0-350.0","","","","false","","","","","","","","","","527.5","","125.59999999962747","","1","1","arrowleft","0","arrowright","[0.325,0.675,0.15,0.85]","","",""
"sailing-trial","386","1762971","0.0-11.0-351.0","","","","false","","","","","","","","","","null","","1645.5","","2","0","null","null","arrowup","[0.325,0.675,0.15,0.85]","","",""
"sailing-trial","387","1767120","0.0-11.0-352.0","","","","false","","","","","","","","","","931.6999999992549","","61.59999999962747","","1","1","arrowleft","0","arrowright","[0.325,0.675,0.15,0.85]","","",""
"sailing-trial","388","1769384","0.0-11.0-353.0","","","","false","","","","","","","","","","null","","932.5","","2","0","null","null","arrowup","[0.325,0.675,0.15,0.85]","","",""
"sailing-trial","389","1773296","0.0-11.0-354.0","","","","false","","","","","","","","","","957.3000000007451","","145.10000000149012","","1","0","arrowleft","0","arrowright","[0.325,0.675,0.15,0.85]","","",""
"sailing-trial","390","1775508","0.0-11.0-355.0","","","","false","","","","","","","","","","null","","852.4000000003725","","2","0","null","null","arrowup","[0.325,0.675,0.15,0.85]","","",""
"sailing-trial","391","1778432","0.0-11.0-356.0","","","","false","","","","","","","","","","757.5","","116.59999999962747","","1","0","arrowleft","0","arrowright","[0.325,0.675,0.15,0.85]","","",""
"sailing-trial","392","1781473","0.0-11.0-357.0","","","","false","","","","","","","","","","null","","1272.5999999996275","","3","1","null","null","arrowup","[0.325,0.675,0.15,0.85]","","",""
"sailing-trial","393","1784614","0.0-11.0-358.0","","","","false","","","","","","","","","","420.19999999925494","","291.5","","0","0","arrowleft","0","arrowleft","[0.325,0.675,0.15,0.85]","","",""
"sailing-trial","394","1787444","0.0-11.0-359.0","","","","false","","","","","","","","","","null","","1089.199999999255","","0","1","null","null","arrowup","[0.325,0.675,0.15,0.85]","","",""
"sailing-trial","395","1790778","0.0-11.0-360.0","","","","false","","","","","","","","","","39.09999999962747","","104.80000000074506","","3","1","arrowright","1","arrowright","[0.325,0.675,0.15,0.85]","","",""
"sailing-trial","396","1793844","0.0-11.0-361.0","","","","false","","","","","","","","","","null","","1068.9000000003725","","0","1","null","null","arrowup","[0.325,0.675,0.15,0.85]","","",""
"sailing-trial","397","1796695","0.0-11.0-362.0","","","","false","","","","","","","","","","133.40000000037253","","75.40000000037253","","3","1","arrowright","1","arrowright","[0.325,0.675,0.15,0.85]","","",""
"sailing-trial","398","1798730","0.0-11.0-363.0","","","","false","","","","","","","","","","null","","463.80000000074506","","0","0","null","null","arrowup","[0.325,0.675,0.15,0.85]","","",""
"sailing-trial","399","1802581","0.0-11.0-364.0","","","","false","","","","","","","","","","24.799999998882413","","34","","3","1","arrowright","1","arrowright","[0.15,0.85,0.325,0.675]","","",""
"sailing-trial","400","1804730","0.0-11.0-365.0","","","","false","","","","","","","","","","null","","177.39999999850988","","2","1","null","null","arrowup","[0.15,0.85,0.325,0.675]","","",""
"sailing-trial","401","1807731","0.0-11.0-366.0","","","","false","","","","","","","","","","13.400000000372529","","202.90000000037253","","3","1","arrowright","1","arrowright","[0.15,0.85,0.325,0.675]","","",""
"sailing-trial","402","1809526","0.0-11.0-367.0","","","","false","","","","","","","","","","null","","71.5","","3","0","null","null","arrowup","[0.15,0.85,0.325,0.675]","","",""
"sailing-trial","403","1814282","0.0-11.0-368.0","","","","false","","","","","","","","","","93.5","","156.7000000011176","","3","1","arrowright","1","arrowright","[0.15,0.85,0.325,0.675]","","",""
"sailing-trial","404","1816532","0.0-11.0-369.0","","","","false","","","","","","","","","","null","","25.800000000745058","","1","1","null","null","arrowup","[0.15,0.85,0.325,0.675]","","",""
"sailing-trial","405","1819533","0.0-11.0-370.0","","","","false","","","","","","","","","","184.5","","20.59999999962747","","3","1","arrowright","1","arrowright","[0.15,0.85,0.325,0.675]","","",""
"sailing-trial","406","1821332","0.0-11.0-371.0","","","","false","","","","","","","","","","null","","154.7999999988824","","2","0","null","null","arrowup","[0.15,0.85,0.325,0.675]","","",""
"sailing-trial","407","1825171","0.0-11.0-372.0","","","","false","","","","","","","","","","667.9000000003725","","65.40000000037253","","3","1","arrowright","1","arrowright","[0.15,0.85,0.325,0.675]","","",""
"sailing-trial","408","1826587","0.0-11.0-373.0","","","","false","","","","","","","","","","null","","197.90000000037253","","0","0","null","null","arrowup","[0.15,0.85,0.325,0.675]","","",""
"sailing-trial","409","1830519","0.0-11.0-374.0","","","","false","","","","","","","","","","267.5","","80.20000000111759","","3","1","arrowright","1","arrowright","[0.15,0.85,0.325,0.675]","","",""
"sailing-trial","410","1833180","0.0-11.0-375.0","","","","false","","","","","","","","","","null","","54.20000000111759","","0","0","null","null","arrowup","[0.15,0.85,0.325,0.675]","","",""
"sailing-trial","411","1835939","0.0-11.0-376.0","","","","false","","","","","","","","","","51.90000000037253","","182.2999999988824","","3","0","arrowright","1","arrowright","[0.15,0.85,0.325,0.675]","","",""
"sailing-trial","412","1837249","0.0-11.0-377.0","","","","false","","","","","","","","","","null","","146.2000000011176","","0","0","null","null","arrowup","[0.15,0.85,0.325,0.675]","","",""
"sailing-trial","413","1840853","0.0-11.0-378.0","","","","false","","","","","","","","","","270.30000000074506","","122","","1","1","arrowleft","0","arrowright","[0.15,0.85,0.325,0.675]","","",""
"sailing-trial","414","1843255","0.0-11.0-379.0","","","","false","","","","","","","","","","null","","777.6999999992549","","1","1","null","null","arrowup","[0.15,0.85,0.325,0.675]","","",""
"sailing-trial","415","1846507","0.0-11.0-380.0","","","","false","","","","","","","","","","89.59999999962747","","24.5","","1","1","arrowleft","0","arrowright","[0.325,0.675,0.15,0.85]","","",""
"sailing-trial","416","1848890","0.0-11.0-381.0","","","","false","","","","","","","","","","null","","651.5","","1","1","null","null","arrowup","[0.325,0.675,0.15,0.85]","","",""
"sailing-trial","417","1853759","0.0-11.0-382.0","","","","false","","","","","","","","","","1622.4000000003725","","66.80000000074506","","1","1","arrowleft","0","arrowright","[0.325,0.675,0.15,0.85]","","",""
"sailing-trial","418","1855677","0.0-11.0-383.0","","","","false","","","","","","","","","","null","","709.5999999996275","","2","0","null","null","arrowup","[0.325,0.675,0.15,0.85]","","",""
"sailing-trial","419","1859393","0.0-11.0-384.0","","","","false","","","","","","","","","","455.80000000074506","","122","","1","1","arrowleft","0","arrowright","[0.325,0.675,0.15,0.85]","","",""
"sailing-trial","420","1863162","0.0-11.0-385.0","","","","false","","","","","","","","","","null","","1911.800000000745","","1","1","null","null","arrowup","[0.325,0.675,0.15,0.85]","","",""
"sailing-trial","421","1867144","0.0-11.0-386.0","","","","false","","","","","","","","","","409","","281.5","","1","1","arrowleft","0","arrowright","[0.325,0.675,0.15,0.85]","","",""
"sailing-trial","422","1869488","0.0-11.0-387.0","","","","false","","","","","","","","","","null","","839.6999999992549","","0","0","null","null","arrowup","[0.325,0.675,0.15,0.85]","","",""
"sailing-trial","423","1874580","0.0-11.0-388.0","","","","false","","","","","","","","","","1023","","167.2999999988824","","1","1","arrowleft","0","arrowright","[0.325,0.675,0.15,0.85]","","",""
"sailing-trial","424","1877116","0.0-11.0-389.0","","","","false","","","","","","","","","","null","","483.30000000074506","","0","0","null","null","arrowup","[0.325,0.675,0.15,0.85]","","",""
"sailing-trial","425","1881212","0.0-11.0-390.0","","","","false","","","","","","","","","","496.3999999985099","","271.90000000037253","","1","1","arrowleft","0","arrowright","[0.325,0.675,0.15,0.85]","","",""
"sailing-trial","426","1883505","0.0-11.0-391.0","","","","false","","","","","","","","","","null","","666.0999999996275","","0","0","null","null","arrowup","[0.325,0.675,0.15,0.85]","","",""
"sailing-trial","427","1887848","0.0-11.0-392.0","","","","false","","","","","","","","","","761.7000000011176","","74.09999999962747","","1","1","arrowleft","0","arrowright","[0.325,0.675,0.15,0.85]","","",""
"sailing-trial","428","1890998","0.0-11.0-393.0","","","","false","","","","","","","","","","null","","729.7000000011176","","3","1","null","null","arrowup","[0.325,0.675,0.15,0.85]","","",""
"sailing-trial","429","1895515","0.0-11.0-394.0","","","","false","","","","","","","","","","404.09999999962747","","310.40000000037253","","1","1","arrowleft","0","arrowright","[0.325,0.675,0.15,0.85]","","",""
"sailing-trial","430","1899067","0.0-11.0-395.0","","","","false","","","","","","","","","","null","","1322.4000000003725","","2","1","null","null","arrowup","[0.325,0.675,0.15,0.85]","","",""
"sailing-trial","431","1902317","0.0-11.0-396.0","","","","false","","","","","","","","","","1.099999999627471","","6.299999998882413","","1","0","arrowleft","0","arrowright","[0.325,0.675,0.15,0.85]","","",""
"sailing-trial","432","1905136","0.0-11.0-397.0","","","","false","","","","","","","","","","null","","922.7000000011176","","3","1","null","null","arrowup","[0.325,0.675,0.15,0.85]","","",""
"sailing-trial","433","1908854","0.0-11.0-398.0","","","","false","","","","","","","","","","318","","168.09999999962747","","1","1","arrowleft","0","arrowright","[0.325,0.675,0.15,0.85]","","",""
"sailing-trial","434","1912286","0.0-11.0-399.0","","","","false","","","","","","","","","","null","","1606.9000000003725","","1","1","null","null","arrowup","[0.325,0.675,0.15,0.85]","","",""
"instructions","435","1920146","0.0-12.0","","","","","","","","","","7858.800000000745","","","","","","","","","","","","","","","","[{""page_index"":0,""viewing_time"":7857.699999999255}]"
"survey-debrief","436","1966391","0.0-13.0","","","","","","","","","","46224.199999999255","","","","","","","","","","","","","","{""difficulty"":""5"",""fun"":""4"",""clarity"":""5"",""strategy"":""I just followed the stores that gave me a lot of treasure until they stopped and I switched to another store that I knew gave out a lot of treasure and switched when they ran out as well."",""feedback"":""""}","",""
