"trial_type","trial_index","time_elapsed","internal_node_id","value","metadata","success","timeout","failed_images","failed_audio","failed_video","browser_interaction","low_quality","rt","stimulus","response","button_pressed","island_rt","island_response","boat_rt","boat_response","boat","reward","island_key","island","boat_key","reward_probabilities","responses","num_errors","view_history"
"pavlovia","0","2","0.0-0.0","","","","","","","","","","","","","","","","","","","","","","","","","",""
"call-function","1","3","0.0-1.0","","{""task_version"":""sailing_part1_v1"",""task_condition"":""good"",""boats"":[""A"",""B"",""C"",""D""],""boats_demo"":[""E"",""F"",""G"",""H""],""islands"":[""B"",""A""],""subject_id"":""14542"",""age"":""15"",""gender"":""Male""}","","","","","","","","","","","","","","","","","","","","","","","",""
"preload","2","1500","0.0-2.0","","","true","false","[]","[]","[]","[{""event"":""fullscreenenter"",""trial"":3,""time"":2447}]","false","","","","","","","","","","","","","","","","",""
"fullscreen","3","3430","0.0-3.0","","","true","","","","","","","","","","","","","","","","","","","","","","",""
"audio-keyboard-response","4","4677","0.0-4.0-0.0","","","","","","","","","","1114.6666666666667","audio/beep_loop.wav"," ","","","","","","","","","","","","","",""
"audio-test","5","14569","0.0-4.0-1.0","","","","","","","","","","null","audio/turtle.mp3","","3","","","","","","","","","","","","",""
"audio-test","6","16564","0.0-4.0-2.0","","","","","","","","","","null","audio/shark.mp3","","2","","","","","","","","","","","","",""
"sailing-instructions","7","46069","0.0-5.0-0.0-0.0","","","","","","","","","","","","","","null","null","null","null","null","null","","","","","","",""
"sailing-trial","8","49214","0.0-5.0-0.0-1.0-0.0","","","","false","","","","","","","","","","2036.1000000014901","","null","","null","null","arrowleft","0","null","null","","",""
"sailing-trial","9","51665","0.0-5.0-0.0-1.0-1.0","","","","false","","","","","","","","","","1355.6999999955297","","null","","null","null","arrowright","1","null","null","","",""
"sailing-trial","10","53982","0.0-5.0-0.0-1.0-2.0","","","","false","","","","","","","","","","1217.9000000059605","","null","","null","null","arrowleft","0","null","null","","",""
"sailing-instructions","11","94228","0.0-5.0-0.0-2.0","","","","","","","","","","","","","","null","null","null","null","0","null","","","","","","",""
"sailing-trial","12","98763","0.0-5.0-0.0-3.0-0.0","","","","false","","","","","","","","","","null","","1430.8999999985099","","2","1","null","null","arrowleft","[1,1,1,1]","","",""
"sailing-trial","13","100963","0.0-5.0-0.0-3.0-1.0","","","","false","","","","","","","","","","null","","70.39999999850988","","3","1","null","null","arrowright","[1,1,1,1]","","",""
"sailing-trial","14","103259","0.0-5.0-0.0-3.0-2.0","","","","false","","","","","","","","","","null","","667.3999999985099","","2","0","null","null","arrowleft","[0,0,0,0]","","",""
"sailing-instructions","15","110602","0.0-5.0-0.0-4.0","","","","","","","","","","","","","","null","null","null","null","null","null","","","","","","",""
"sailing-comprehension","16","125399","0.0-5.0-0.0-5.0","","","","","","","","","","13464","","","","","","","","","","","","","","[""true"",""true"",""false"",""true""]","0",""
"sailing-instructions","17","185924","0.0-6.0-0.0-0.0","","","","","","","","","","","","","","null","null","null","null","null","null","","","","","","",""
"sailing-comprehension","18","199276","0.0-6.0-0.0-1.0","","","","","","","","","","11740.09999999404","","","","","","","","","","","","","","[""true"",""false"",""true""]","0",""
"sailing-instructions","19","212251","0.0-7.0-0.0-0.0","","","","","","","","","","","","","","null","null","null","null","null","null","","","","","","",""
"sailing-trial","20","218225","0.0-7.0-0.0-1.0-0.0","","","","false","","","","","","","","","","null","","2816.7999999970198","","0","1","null","null","arrowup","[0.2,0.8,0.2,0.8]","","",""
"sailing-trial","21","220480","0.0-7.0-0.0-1.0-1.0","","","","false","","","","","","","","","","null","","880","","1","0","null","null","arrowup","[0.2,0.8,0.2,0.8]","","",""
"sailing-trial","22","222552","0.0-7.0-0.0-1.0-2.0","","","","false","","","","","","","","","","null","","720.5","","2","0","null","null","arrowup","[0.2,0.8,0.2,0.8]","","",""
"sailing-trial","23","224807","0.0-7.0-0.0-1.0-3.0","","","","false","","","","","","","","","","null","","421.8999999985099","","3","1","null","null","arrowup","[0.2,0.8,0.2,0.8]","","",""
"sailing-comprehension","24","240473","0.0-7.0-0.0-2.0","","","","","","","","","","5944","","","","","","","","","","","","","","[""false""]","0",""
"sailing-instructions","25","252259","0.0-8.0-0.0-0.0","","","","","","","","","","","","","","null","null","null","null","null","null","","","","","","",""
"sailing-comprehension","26","256145","0.0-8.0-0.0-1.0","","","","","","","","","","2553.10000000149","","","","","","","","","","","","","","[""true""]","0",""
"sailing-instructions","27","286740","0.0-9.0-0.0-0.0","","","","","","","","","","","","","","null","null","null","null","null","null","","","","","","",""
"sailing-trial","28","291106","0.0-9.0-0.0-1.0-0.0","","","","false","","","","","","","","","","696.0999999940395","","357.29999999701977","","1","1","arrowleft","0","arrowright","[0.2,0.8,0.2,0.8]","","",""
"sailing-trial","29","295105","0.0-9.0-0.0-1.0-1.0","","","","false","","","","","","","","","","700.2000000029802","","60.29999999701977","","1","1","arrowleft","0","arrowright","[0.2,0.8,0.2,0.8]","","",""
"sailing-trial","30","298383","0.0-9.0-0.0-1.0-2.0","","","","false","","","","","","","","","","null","","1291.8000000044703","","0","0","null","null","arrowup","[0.2,0.8,0.2,0.8]","","",""
"sailing-trial","31","301839","0.0-9.0-0.0-1.0-3.0","","","","false","","","","","","","","","","442","","297.19999999552965","","2","0","arrowright","1","arrowleft","[0.2,0.8,0.2,0.8]","","",""
"sailing-trial","32","304889","0.0-9.0-0.0-1.0-4.0","","","","false","","","","","","","","","","null","","1234.7000000029802","","3","1","null","null","arrowup","[0.2,0.8,0.2,0.8]","","",""
"sailing-trial","33","308612","0.0-9.0-0.0-1.0-5.0","","","","false","","","","","","","","","","507.8999999985099","","226.5","","1","0","arrowleft","0","arrowright","[0.2,0.8,0.2,0.8]","","",""
"sailing-instructions","34","332648","0.0-10.0","","","","","","","","","","","","","","null","null","null","null","null","null","","","","","","",""
"sailing-trial","35","339323","0.0-11.0-0.0","","","","false","","","","","","","","","","2412","","208.20000000298023","","1","0","arrowleft","0","arrowright","[0.85,0.15,0.325,0.675]","","",""
"sailing-trial","36","343137","0.0-11.0-1.0","","","","false","","","","","","","","","","null","","1267.7000000029802","","3","1","null","null","arrowup","[0.85,0.15,0.325,0.675]","","",""
"sailing-trial","37","347245","0.0-11.0-2.0","","","","false","","","","","","","","","","623.5","","901.5","","0","0","arrowleft","0","arrowleft","[0.85,0.15,0.325,0.675]","","",""
"sailing-trial","38","349703","0.0-11.0-3.0","","","","false","","","","","","","","","","null","","430.29999999701977","","0","1","null","null","arrowup","[0.85,0.15,0.325,0.675]","","",""
"sailing-trial","39","354735","0.0-11.0-4.0","","","","false","","","","","","","","","","1278.7000000029802","","207.10000000149012","","0","1","arrowleft","0","arrowleft","[0.85,0.15,0.325,0.675]","","",""
"sailing-trial","40","359422","0.0-11.0-5.0","","","","false","","","","","","","","","","null","","1683.3999999985099","","1","0","null","null","arrowup","[0.85,0.15,0.325,0.675]","","",""
"sailing-trial","41","367237","0.0-11.0-6.0","","","","false","","","","","","","","","","1187.7000000029802","","262.6000000014901","","0","1","arrowleft","0","arrowleft","[0.85,0.15,0.325,0.675]","","",""
"sailing-trial","42","375368","0.0-11.0-7.0","","","","false","","","","","","","","","","null","","2341.5","","2","1","null","null","arrowup","[0.85,0.15,0.325,0.675]","","",""
"sailing-trial","43","379203","0.0-11.0-8.0","","","","false","","","","","","","","","","469.80000000447035","","279.5","","0","1","arrowleft","0","arrowleft","[0.85,0.15,0.325,0.675]","","",""
"sailing-trial","44","384252","0.0-11.0-9.0","","","","false","","","","","","","","","","null","","1561.5","","0","1","null","null","arrowup","[0.85,0.15,0.325,0.675]","","",""
"sailing-trial","45","387820","0.0-11.0-10.0","","","","false","","","","","","","","","","769.8000000044703","","15.5","","0","1","arrowleft","0","arrowleft","[0.85,0.15,0.325,0.675]","","",""
"sailing-trial","46","389651","0.0-11.0-11.0","","","","false","","","","","","","","","","null","","215.20000000298023","","0","1","null","null","arrowup","[0.85,0.15,0.325,0.675]","","",""
"sailing-trial","47","393634","0.0-11.0-12.0","","","","false","","","","","","","","","","166.80000000447035","","1111.7999999970198","","0","1","arrowleft","0","arrowleft","[0.85,0.15,0.325,0.675]","","",""
"sailing-trial","48","395153","0.0-11.0-13.0","","","","false","","","","","","","","","","null","","184.09999999403954","","2","0","null","null","arrowup","[0.85,0.15,0.325,0.675]","","",""
"sailing-trial","49","397952","0.0-11.0-14.0","","","","false","","","","","","","","","","187.79999999701977","","44.399999998509884","","0","1","arrowleft","0","arrowleft","[0.85,0.15,0.325,0.675]","","",""
"sailing-trial","50","399070","0.0-11.0-15.0","","","","false","","","","","","","","","","null","","44.600000001490116","","2","0","null","null","arrowup","[0.85,0.15,0.325,0.675]","","",""
"sailing-trial","51","401951","0.0-11.0-16.0","","","","false","","","","","","","","","","175.59999999403954","","117.90000000596046","","0","1","arrowleft","0","arrowleft","[0.85,0.15,0.325,0.675]","","",""
"sailing-trial","52","403985","0.0-11.0-17.0","","","","false","","","","","","","","","","null","","181.60000000149012","","2","1","null","null","arrowup","[0.85,0.15,0.325,0.675]","","",""
"sailing-trial","53","407085","0.0-11.0-18.0","","","","false","","","","","","","","","","100.20000000298023","","125.80000000447035","","0","1","arrowleft","0","arrowleft","[0.85,0.15,0.325,0.675]","","",""
"sailing-trial","54","408651","0.0-11.0-19.0","","","","false","","","","","","","","","","null","","22.100000001490116","","1","0","null","null","arrowup","[0.85,0.15,0.325,0.675]","","",""
"sailing-trial","55","411836","0.0-11.0-20.0","","","","false","","","","","","","","","","182.5","","150.20000000298023","","0","1","arrowleft","0","arrowleft","[0.85,0.15,0.325,0.675]","","",""
"sailing-trial","56","413246","0.0-11.0-21.0","","","","false","","","","","","","","","","null","","233.20000000298023","","3","0","null","null","arrowup","[0.85,0.15,0.325,0.675]","","",""
"sailing-trial","57","416435","0.0-11.0-22.0","","","","false","","","","","","","","","","325.1000000014901","","208.09999999403954","","0","1","arrowleft","0","arrowleft","[0.85,0.15,0.325,0.675]","","",""
"sailing-trial","58","417916","0.0-11.0-23.0","","","","false","","","","","","","","","","null","","167.5","","2","0","null","null","arrowup","[0.85,0.15,0.325,0.675]","","",""
"sailing-trial","59","420304","0.0-11.0-24.0","","","","false","","","","","","","","","","60","","41.69999999552965","","0","0","arrowleft","0","arrowleft","[0.15,0.85,0.675,0.325]","","",""
"sailing-trial","60","421919","0.0-11.0-25.0","","","","false","","","","","","","","","","null","","47.29999999701977","","1","1","null","null","arrowup","[0.15,0.85,0.675,0.325]","","",""
"sailing-trial","61","424208","0.0-11.0-26.0","","","","false","","","","","","","","","","18.400000005960464","","206.5","","0","0","arrowleft","0","arrowleft","[0.15,0.85,0.675,0.325]","","",""
"sailing-trial","62","425966","0.0-11.0-27.0","","","","false","","","","","","","","","","null","","106","","1","1","null","null","arrowup","[0.15,0.85,0.675,0.325]","","",""
"sailing-trial","63","429631","0.0-11.0-28.0","","","","false","","","","","","","","","","466.8999999985099","","159","","0","0","arrowleft","0","arrowleft","[0.15,0.85,0.675,0.325]","","",""
"sailing-trial","64","433035","0.0-11.0-29.0","","","","false","","","","","","","","","","null","","1034.2999999970198","","2","1","null","null","arrowup","[0.15,0.85,0.675,0.325]","","",""
"sailing-trial","65","437457","0.0-11.0-30.0","","","","false","","","","","","","","","","358","","114.19999999552965","","2","0","arrowright","1","arrowleft","[0.15,0.85,0.675,0.325]","","",""
"sailing-trial","66","442097","0.0-11.0-31.0","","","","false","","","","","","","","","","null","","3015.39999999851","","0","0","null","null","arrowup","[0.15,0.85,0.675,0.325]","","",""
"sailing-trial","67","445851","0.0-11.0-32.0","","","","false","","","","","","","","","","930.1000000014901","","246.39999999850988","","1","1","arrowleft","0","arrowright","[0.15,0.85,0.675,0.325]","","",""
"sailing-trial","68","446904","0.0-11.0-33.0","","","","false","","","","","","","","","","null","","19.5","","0","0","null","null","arrowup","[0.15,0.85,0.675,0.325]","","",""
"sailing-trial","69","450417","0.0-11.0-34.0","","","","false","","","","","","","","","","459.69999999552965","","441.59999999403954","","3","1","arrowright","1","arrowright","[0.15,0.85,0.675,0.325]","","",""
"sailing-trial","70","451848","0.0-11.0-35.0","","","","false","","","","","","","","","","null","","55.29999999701977","","0","0","null","null","arrowup","[0.15,0.85,0.675,0.325]","","",""
"sailing-trial","71","454384","0.0-11.0-36.0","","","","false","","","","","","","","","","115.10000000149012","","294.8999999985099","","3","0","arrowright","1","arrowright","[0.15,0.85,0.675,0.325]","","",""
"sailing-trial","72","456017","0.0-11.0-37.0","","","","false","","","","","","","","","","null","","6.300000004470348","","2","1","null","null","arrowup","[0.15,0.85,0.675,0.325]","","",""
"sailing-trial","73","458800","0.0-11.0-38.0","","","","false","","","","","","","","","","135.10000000149012","","40.600000001490116","","2","1","arrowright","1","arrowleft","[0.15,0.85,0.675,0.325]","","",""
"sailing-trial","74","461467","0.0-11.0-39.0","","","","false","","","","","","","","","","null","","895.4000000059605","","2","1","null","null","arrowup","[0.15,0.85,0.675,0.325]","","",""
"sailing-trial","75","463745","0.0-11.0-40.0","","","","false","","","","","","","","","","0.19999999552965164","","75.80000000447035","","2","0","arrowright","1","arrowleft","[0.85,0.15,0.325,0.675]","","",""
"sailing-trial","76","466970","0.0-11.0-41.0","","","","false","","","","","","","","","","null","","205.89999999850988","","2","0","null","null","arrowup","[0.85,0.15,0.325,0.675]","","",""
"sailing-trial","77","469238","0.0-11.0-42.0","","","","false","","","","","","","","","","53.30000000447035","","169.69999999552965","","2","0","arrowright","1","arrowleft","[0.85,0.15,0.325,0.675]","","",""
"sailing-trial","78","471431","0.0-11.0-43.0","","","","false","","","","","","","","","","null","","101.39999999850988","","1","0","null","null","arrowup","[0.85,0.15,0.325,0.675]","","",""
"sailing-trial","79","474801","0.0-11.0-44.0","","","","false","","","","","","","","","","121.79999999701977","","147.79999999701977","","2","0","arrowright","1","arrowleft","[0.85,0.15,0.325,0.675]","","",""
"sailing-trial","80","475845","0.0-11.0-45.0","","","","false","","","","","","","","","","null","","3.1999999955296516","","3","0","null","null","arrowup","[0.85,0.15,0.325,0.675]","","",""
"sailing-trial","81","479182","0.0-11.0-46.0","","","","false","","","","","","","","","","507.29999999701977","","213.5","","0","1","arrowleft","0","arrowleft","[0.85,0.15,0.325,0.675]","","",""
"sailing-trial","82","480653","0.0-11.0-47.0","","","","false","","","","","","","","","","null","","126.19999999552965","","1","0","null","null","arrowup","[0.85,0.15,0.325,0.675]","","",""
"sailing-trial","83","483682","0.0-11.0-48.0","","","","false","","","","","","","","","","128.60000000149012","","84.5","","0","1","arrowleft","0","arrowleft","[0.85,0.15,0.325,0.675]","","",""
"sailing-trial","84","485167","0.0-11.0-49.0","","","","false","","","","","","","","","","null","","218.20000000298023","","2","0","null","null","arrowup","[0.85,0.15,0.325,0.675]","","",""
"sailing-trial","85","487631","0.0-11.0-50.0","","","","false","","","","","","","","","","122.60000000149012","","23.799999997019768","","0","0","arrowleft","0","arrowleft","[0.85,0.15,0.325,0.675]","","",""
"sailing-trial","86","488941","0.0-11.0-51.0","","","","false","","","","","","","","","","null","","126.60000000149012","","1","0","null","null","arrowup","[0.85,0.15,0.325,0.675]","","",""
"sailing-trial","87","492281","0.0-11.0-52.0","","","","false","","","","","","","","","","52.399999998509884","","393","","0","1","arrowleft","0","arrowleft","[0.85,0.15,0.325,0.675]","","",""
"sailing-trial","88","494071","0.0-11.0-53.0","","","","false","","","","","","","","","","null","","245.10000000149012","","1","0","null","null","arrowup","[0.85,0.15,0.325,0.675]","","",""
"sailing-trial","89","496882","0.0-11.0-54.0","","","","false","","","","","","","","","","129.79999999701977","","8.199999995529652","","0","1","arrowleft","0","arrowleft","[0.85,0.15,0.325,0.675]","","",""
"sailing-trial","90","498783","0.0-11.0-55.0","","","","false","","","","","","","","","","null","","19.200000002980232","","3","1","null","null","arrowup","[0.85,0.15,0.325,0.675]","","",""
"sailing-trial","91","501581","0.0-11.0-56.0","","","","false","","","","","","","","","","75.09999999403954","","99.10000000149012","","0","1","arrowleft","0","arrowleft","[0.85,0.15,0.325,0.675]","","",""
"sailing-trial","92","503432","0.0-11.0-57.0","","","","false","","","","","","","","","","null","","54.79999999701977","","2","1","null","null","arrowup","[0.85,0.15,0.325,0.675]","","",""
"sailing-trial","93","506180","0.0-11.0-58.0","","","","false","","","","","","","","","","8.100000001490116","","78.89999999850988","","0","1","arrowleft","0","arrowleft","[0.675,0.325,0.15,0.85]","","",""
"sailing-trial","94","507368","0.0-11.0-59.0","","","","false","","","","","","","","","","null","","17.899999998509884","","2","0","null","null","arrowup","[0.675,0.325,0.15,0.85]","","",""
"sailing-trial","95","510216","0.0-11.0-60.0","","","","false","","","","","","","","","","117.29999999701977","","5.600000001490116","","0","1","arrowleft","0","arrowleft","[0.675,0.325,0.15,0.85]","","",""
"sailing-trial","96","512114","0.0-11.0-61.0","","","","false","","","","","","","","","","null","","131.89999999850988","","1","1","null","null","arrowup","[0.675,0.325,0.15,0.85]","","",""
"sailing-trial","97","516501","0.0-11.0-62.0","","","","false","","","","","","","","","","191.10000000149012","","148.10000000149012","","0","0","arrowleft","0","arrowleft","[0.675,0.325,0.15,0.85]","","",""
"sailing-trial","98","519332","0.0-11.0-63.0","","","","false","","","","","","","","","","null","","907.2000000029802","","3","1","null","null","arrowup","[0.675,0.325,0.15,0.85]","","",""
"sailing-trial","99","523197","0.0-11.0-64.0","","","","false","","","","","","","","","","966.7000000029802","","122.29999999701977","","3","1","arrowright","1","arrowright","[0.675,0.325,0.15,0.85]","","",""
"sailing-trial","100","525264","0.0-11.0-65.0","","","","false","","","","","","","","","","null","","150","","0","1","null","null","arrowup","[0.675,0.325,0.15,0.85]","","",""
"sailing-trial","101","528113","0.0-11.0-66.0","","","","false","","","","","","","","","","86.5","","50.19999999552965","","3","1","arrowright","1","arrowright","[0.675,0.325,0.15,0.85]","","",""
"sailing-trial","102","529391","0.0-11.0-67.0","","","","false","","","","","","","","","","null","","92.5","","2","0","null","null","arrowup","[0.675,0.325,0.15,0.85]","","",""
"sailing-trial","103","532913","0.0-11.0-68.0","","","","false","","","","","","","","","","697","","109","","3","1","arrowright","1","arrowright","[0.675,0.325,0.15,0.85]","","",""
"sailing-trial","104","534848","0.0-11.0-69.0","","","","false","","","","","","","","","","null","","259.20000000298023","","0","1","null","null","arrowup","[0.675,0.325,0.15,0.85]","","",""
"sailing-trial","105","537862","0.0-11.0-70.0","","","","false","","","","","","","","","","99.5","","120.39999999850988","","3","1","arrowright","1","arrowright","[0.675,0.325,0.15,0.85]","","",""
"sailing-trial","106","539796","0.0-11.0-71.0","","","","false","","","","","","","","","","null","","236.80000000447035","","3","1","null","null","arrowup","[0.675,0.325,0.15,0.85]","","",""
"sailing-trial","107","543046","0.0-11.0-72.0","","","","false","","","","","","","","","","195.30000000447035","","357.40000000596046","","3","1","arrowright","1","arrowright","[0.675,0.325,0.15,0.85]","","",""
"sailing-trial","108","545713","0.0-11.0-73.0","","","","false","","","","","","","","","","null","","287.70000000298023","","0","1","null","null","arrowup","[0.675,0.325,0.15,0.85]","","",""
"sailing-trial","109","548864","0.0-11.0-74.0","","","","false","","","","","","","","","","99.40000000596046","","430.3999999985099","","3","1","arrowright","1","arrowright","[0.85,0.15,0.325,0.675]","","",""
"sailing-trial","110","551079","0.0-11.0-75.0","","","","false","","","","","","","","","","null","","40.70000000298023","","3","1","null","null","arrowup","[0.85,0.15,0.325,0.675]","","",""
"sailing-trial","111","554094","0.0-11.0-76.0","","","","false","","","","","","","","","","234.20000000298023","","427.1000000014901","","3","0","arrowright","1","arrowright","[0.85,0.15,0.325,0.675]","","",""
"sailing-trial","112","555845","0.0-11.0-77.0","","","","false","","","","","","","","","","null","","64.5","","3","1","null","null","arrowup","[0.85,0.15,0.325,0.675]","","",""
"sailing-trial","113","558855","0.0-11.0-78.0","","","","false","","","","","","","","","","365.79999999701977","","438.19999999552965","","2","0","arrowright","1","arrowleft","[0.85,0.15,0.325,0.675]","","",""
"sailing-trial","114","560897","0.0-11.0-79.0","","","","false","","","","","","","","","","null","","287.8999999985099","","0","1","null","null","arrowup","[0.85,0.15,0.325,0.675]","","",""
"sailing-trial","115","564812","0.0-11.0-80.0","","","","false","","","","","","","","","","402.70000000298023","","244.89999999850988","","2","1","arrowright","1","arrowleft","[0.85,0.15,0.325,0.675]","","",""
"sailing-trial","116","567297","0.0-11.0-81.0","","","","false","","","","","","","","","","null","","1117.3000000044703","","3","0","null","null","arrowup","[0.85,0.15,0.325,0.675]","","",""
"sailing-trial","117","570212","0.0-11.0-82.0","","","","false","","","","","","","","","","68.29999999701977","","96.90000000596046","","0","1","arrowleft","0","arrowleft","[0.85,0.15,0.325,0.675]","","",""
"sailing-trial","118","571451","0.0-11.0-83.0","","","","false","","","","","","","","","","null","","60.79999999701977","","2","0","null","null","arrowup","[0.85,0.15,0.325,0.675]","","",""
"sailing-trial","119","574684","0.0-11.0-84.0","","","","false","","","","","","","","","","194.80000000447035","","642.1000000014901","","1","0","arrowleft","0","arrowright","[0.85,0.15,0.325,0.675]","","",""
"sailing-trial","120","577564","0.0-11.0-85.0","","","","false","","","","","","","","","","null","","616.6000000014901","","3","1","null","null","arrowup","[0.85,0.15,0.325,0.675]","","",""
"sailing-trial","121","579825","0.0-11.0-86.0","","","","false","","","","","","","","","","53.399999998509884","","52","","2","0","arrowright","1","arrowleft","[0.85,0.15,0.325,0.675]","","",""
"sailing-trial","122","582045","0.0-11.0-87.0","","","","false","","","","","","","","","","null","","441.80000000447035","","3","1","null","null","arrowup","[0.85,0.15,0.325,0.675]","","",""
"sailing-trial","123","586162","0.0-11.0-88.0","","","","false","","","","","","","","","","1164.6000000014901","","149.29999999701977","","2","1","arrowright","1","arrowleft","[0.85,0.15,0.325,0.675]","","",""
"sailing-trial","124","588296","0.0-11.0-89.0","","","","false","","","","","","","","","","null","","208.39999999850988","","0","1","null","null","arrowup","[0.85,0.15,0.325,0.675]","","",""
"sailing-trial","125","590980","0.0-11.0-90.0","","","","false","","","","","","","","","","470.80000000447035","","212.60000000149012","","1","0","arrowleft","0","arrowright","[0.85,0.15,0.325,0.675]","","",""
"sailing-trial","126","592979","0.0-11.0-91.0","","","","false","","","","","","","","","","null","","248.30000000447035","","0","1","null","null","arrowup","[0.85,0.15,0.325,0.675]","","",""
"sailing-trial","127","595534","0.0-11.0-92.0","","","","false","","","","","","","","","","228.10000000149012","","43.20000000298023","","0","0","arrowleft","0","arrowleft","[0.85,0.15,0.325,0.675]","","",""
"sailing-trial","128","597844","0.0-11.0-93.0","","","","false","","","","","","","","","","null","","189.29999999701977","","0","1","null","null","arrowup","[0.85,0.15,0.325,0.675]","","",""
"sailing-trial","129","601211","0.0-11.0-94.0","","","","false","","","","","","","","","","135","","633.2999999970198","","0","1","arrowleft","0","arrowleft","[0.85,0.15,0.325,0.675]","","",""
"sailing-trial","130","602672","0.0-11.0-95.0","","","","false","","","","","","","","","","null","","122.89999999850988","","3","0","null","null","arrowup","[0.85,0.15,0.325,0.675]","","",""
"sailing-trial","131","605927","0.0-11.0-96.0","","","","false","","","","","","","","","","340.19999999552965","","209.5","","0","1","arrowleft","0","arrowleft","[0.675,0.325,0.15,0.85]","","",""
"sailing-trial","132","607878","0.0-11.0-97.0","","","","false","","","","","","","","","","null","","221.80000000447035","","1","1","null","null","arrowup","[0.675,0.325,0.15,0.85]","","",""
"sailing-trial","133","610612","0.0-11.0-98.0","","","","false","","","","","","","","","","92.70000000298023","","83.5","","0","1","arrowleft","0","arrowleft","[0.675,0.325,0.15,0.85]","","",""
"sailing-trial","134","613095","0.0-11.0-99.0","","","","false","","","","","","","","","","null","","902.1000000014901","","1","1","null","null","arrowup","[0.675,0.325,0.15,0.85]","","",""
"sailing-trial","135","616961","0.0-11.0-100.0","","","","false","","","","","","","","","","112.39999999850988","","484.8999999985099","","0","1","arrowleft","0","arrowleft","[0.675,0.325,0.15,0.85]","","",""
"sailing-trial","136","619095","0.0-11.0-101.0","","","","false","","","","","","","","","","null","","78","","0","1","null","null","arrowup","[0.675,0.325,0.15,0.85]","","",""
"sailing-trial","137","623362","0.0-11.0-102.0","","","","false","","","","","","","","","","710.6000000014901","","673.5","","0","1","arrowleft","0","arrowleft","[0.675,0.325,0.15,0.85]","","",""
"sailing-trial","138","625126","0.0-11.0-103.0","","","","false","","","","","","","","","","null","","677.2000000029802","","1","0","null","null","arrowup","[0.675,0.325,0.15,0.85]","","",""
"sailing-trial","139","628100","0.0-11.0-104.0","","","","false","","","","","","","","","","787.3999999985099","","109","","0","0","arrowleft","0","arrowleft","[0.675,0.325,0.15,0.85]","","",""
"sailing-trial","140","629766","0.0-11.0-105.0","","","","false","","","","","","","","","","null","","185.89999999850988","","3","0","null","null","arrowup","[0.675,0.325,0.15,0.85]","","",""
"sailing-trial","141","633965","0.0-11.0-106.0","","","","false","","","","","","","","","","14.899999998509884","","178.20000000298023","","1","0","arrowleft","0","arrowright","[0.675,0.325,0.15,0.85]","","",""
"sailing-trial","142","636927","0.0-11.0-107.0","","","","false","","","","","","","","","","null","","1389.1000000014901","","1","1","null","null","arrowup","[0.675,0.325,0.15,0.85]","","",""
"sailing-trial","143","639260","0.0-11.0-108.0","","","","false","","","","","","","","","","3","","38","","2","0","arrowright","1","arrowleft","[0.675,0.325,0.15,0.85]","","",""
"sailing-trial","144","641294","0.0-11.0-109.0","","","","false","","","","","","","","","","null","","97.29999999701977","","3","1","null","null","arrowup","[0.675,0.325,0.15,0.85]","","",""
"sailing-trial","145","644460","0.0-11.0-110.0","","","","false","","","","","","","","","","86.70000000298023","","151.19999999552965","","3","1","arrowright","1","arrowright","[0.675,0.325,0.15,0.85]","","",""
"sailing-trial","146","645841","0.0-11.0-111.0","","","","false","","","","","","","","","","null","","85.30000000447035","","2","0","null","null","arrowup","[0.675,0.325,0.15,0.85]","","",""
"sailing-trial","147","649009","0.0-11.0-112.0","","","","false","","","","","","","","","","163.39999999850988","","220.29999999701977","","3","1","arrowright","1","arrowright","[0.675,0.325,0.15,0.85]","","",""
"sailing-trial","148","650592","0.0-11.0-113.0","","","","false","","","","","","","","","","null","","261.19999999552965","","1","0","null","null","arrowup","[0.675,0.325,0.15,0.85]","","",""
"sailing-trial","149","654809","0.0-11.0-114.0","","","","false","","","","","","","","","","976.5","","126.5","","3","1","arrowright","1","arrowright","[0.675,0.325,0.15,0.85]","","",""
"sailing-trial","150","656131","0.0-11.0-115.0","","","","false","","","","","","","","","","null","","180.09999999403954","","0","0","null","null","arrowup","[0.675,0.325,0.15,0.85]","","",""
"sailing-trial","151","659410","0.0-11.0-116.0","","","","false","","","","","","","","","","70.39999999850988","","377.1000000014901","","3","1","arrowright","1","arrowright","[0.675,0.325,0.15,0.85]","","",""
"sailing-trial","152","661360","0.0-11.0-117.0","","","","false","","","","","","","","","","null","","162.29999999701977","","0","1","null","null","arrowup","[0.675,0.325,0.15,0.85]","","",""
"sailing-trial","153","665176","0.0-11.0-118.0","","","","false","","","","","","","","","","271","","388.79999999701977","","3","1","arrowright","1","arrowright","[0.85,0.15,0.325,0.675]","","",""
"sailing-trial","154","667150","0.0-11.0-119.0","","","","false","","","","","","","","","","null","","347.1000000014901","","2","0","null","null","arrowup","[0.85,0.15,0.325,0.675]","","",""
"sailing-trial","155","671513","0.0-11.0-120.0","","","","false","","","","","","","","","","1175.8999999985099","","475","","3","0","arrowright","1","arrowright","[0.85,0.15,0.325,0.675]","","",""
"sailing-trial","156","673443","0.0-11.0-121.0","","","","false","","","","","","","","","","null","","142.59999999403954","","0","1","null","null","arrowup","[0.85,0.15,0.325,0.675]","","",""
"sailing-trial","157","681676","0.0-11.0-122.0","","","","false","","","","","","","","","","198.80000000447035","","978.7999999970198","","3","1","arrowright","1","arrowright","[0.85,0.15,0.325,0.675]","","",""
"sailing-trial","158","683238","0.0-11.0-123.0","","","","false","","","","","","","","","","null","","419.80000000447035","","1","0","null","null","arrowup","[0.85,0.15,0.325,0.675]","","",""
"sailing-trial","159","685614","0.0-11.0-124.0","","","","false","","","","","","","","","","149.39999999850988","","74.89999999850988","","3","0","arrowright","1","arrowright","[0.85,0.15,0.325,0.675]","","",""
"sailing-trial","160","687592","0.0-11.0-125.0","","","","false","","","","","","","","","","null","","75.5","","2","1","null","null","arrowup","[0.85,0.15,0.325,0.675]","","",""
"sailing-trial","161","689906","0.0-11.0-126.0","","","","false","","","","","","","","","","0.10000000149011612","","216.60000000149012","","2","0","arrowright","1","arrowleft","[0.85,0.15,0.325,0.675]","","",""
"sailing-trial","162","692569","0.0-11.0-127.0","","","","false","","","","","","","","","","null","","1542.5","","1","0","null","null","arrowup","[0.85,0.15,0.325,0.675]","","",""
"sailing-trial","163","696091","0.0-11.0-128.0","","","","false","","","","","","","","","","452.3999999985099","","305.1000000014901","","0","1","arrowleft","0","arrowleft","[0.85,0.15,0.325,0.675]","","",""
"sailing-trial","164","697327","0.0-11.0-129.0","","","","false","","","","","","","","","","null","","215.5","","2","0","null","null","arrowup","[0.85,0.15,0.325,0.675]","","",""
"sailing-trial","165","700180","0.0-11.0-130.0","","","","false","","","","","","","","","","2.100000001490116","","687.7000000029802","","1","0","arrowleft","0","arrowright","[0.85,0.15,0.325,0.675]","","",""
"sailing-trial","166","701741","0.0-11.0-131.0","","","","false","","","","","","","","","","null","","157.60000000149012","","3","0","null","null","arrowup","[0.85,0.15,0.325,0.675]","","",""
"sailing-trial","167","704540","0.0-11.0-132.0","","","","false","","","","","","","","","","94.60000000149012","","49.29999999701977","","1","0","arrowleft","0","arrowright","[0.85,0.15,0.325,0.675]","","",""
"sailing-trial","168","707925","0.0-11.0-133.0","","","","false","","","","","","","","","","null","","346.90000000596046","","1","0","null","null","arrowup","[0.85,0.15,0.325,0.675]","","",""
"sailing-trial","169","711753","0.0-11.0-134.0","","","","false","","","","","","","","","","1458","","55.900000005960464","","2","0","arrowright","1","arrowleft","[0.85,0.15,0.325,0.675]","","",""
"sailing-trial","170","713266","0.0-11.0-135.0","","","","false","","","","","","","","","","null","","333.5","","1","0","null","null","arrowup","[0.85,0.15,0.325,0.675]","","",""
"sailing-trial","171","715788","0.0-11.0-136.0","","","","false","","","","","","","","","","450.40000000596046","","15","","2","0","arrowright","1","arrowleft","[0.675,0.325,0.15,0.85]","","",""
"sailing-trial","172","717540","0.0-11.0-137.0","","","","false","","","","","","","","","","null","","146.20000000298023","","3","1","null","null","arrowup","[0.675,0.325,0.15,0.85]","","",""
"sailing-trial","173","720525","0.0-11.0-138.0","","","","false","","","","","","","","","","100.29999999701977","","212.70000000298023","","0","1","arrowleft","0","arrowleft","[0.675,0.325,0.15,0.85]","","",""
"sailing-trial","174","722725","0.0-11.0-139.0","","","","false","","","","","","","","","","null","","113","","1","1","null","null","arrowup","[0.675,0.325,0.15,0.85]","","",""
"sailing-trial","175","725992","0.0-11.0-140.0","","","","false","","","","","","","","","","60.599999994039536","","120.79999999701977","","1","0","arrowleft","0","arrowright","[0.675,0.325,0.15,0.85]","","",""
"sailing-trial","176","732907","0.0-11.0-141.0","","","","false","","","","","","","","","","null","","1230.3000000044703","","1","1","null","null","arrowup","[0.675,0.325,0.15,0.85]","","",""
"sailing-trial","177","735923","0.0-11.0-142.0","","","","false","","","","","","","","","","165","","207.5","","3","1","arrowright","1","arrowright","[0.675,0.325,0.15,0.85]","","",""
"sailing-trial","178","737277","0.0-11.0-143.0","","","","false","","","","","","","","","","null","","105.20000000298023","","2","0","null","null","arrowup","[0.675,0.325,0.15,0.85]","","",""
"sailing-trial","179","748840","0.0-11.0-144.0","","","","false","","","","","","","","","","2770","","272.29999999701977","","3","1","arrowright","1","arrowright","[0.675,0.325,0.15,0.85]","","",""
"sailing-trial","180","750408","0.0-11.0-145.0","","","","false","","","","","","","","","","null","","4.100000001490116","","3","1","null","null","arrowup","[0.675,0.325,0.15,0.85]","","",""
"sailing-trial","181","755554","0.0-11.0-146.0","","","","false","","","","","","","","","","1920.3000000044703","","1125.7000000029802","","2","0","arrowright","1","arrowleft","[0.675,0.325,0.15,0.85]","","",""
"sailing-trial","182","757224","0.0-11.0-147.0","","","","false","","","","","","","","","","null","","48.899999998509884","","3","1","null","null","arrowup","[0.675,0.325,0.15,0.85]","","",""
"sailing-trial","183","761821","0.0-11.0-148.0","","","","false","","","","","","","","","","839.4000000059605","","1056.2999999970198","","0","1","arrowleft","0","arrowleft","[0.675,0.325,0.15,0.85]","","",""
"sailing-trial","184","763481","0.0-11.0-149.0","","","","false","","","","","","","","","","null","","645.7000000029802","","2","0","null","null","arrowup","[0.675,0.325,0.15,0.85]","","",""
"sailing-trial","185","767307","0.0-11.0-150.0","","","","false","","","","","","","","","","1026.6000000014901","","270","","3","1","arrowright","1","arrowright","[0.675,0.325,0.15,0.85]","","",""
"sailing-trial","186","769055","0.0-11.0-151.0","","","","false","","","","","","","","","","null","","170.19999999552965","","1","1","null","null","arrowup","[0.675,0.325,0.15,0.85]","","",""
"sailing-trial","187","773805","0.0-11.0-152.0","","","","false","","","","","","","","","","1500.2999999970198","","46.70000000298023","","2","1","arrowright","1","arrowleft","[0.15,0.85,0.675,0.325]","","",""
"sailing-trial","188","778640","0.0-11.0-153.0","","","","false","","","","","","","","","","null","","151","","0","1","null","null","arrowup","[0.15,0.85,0.675,0.325]","","",""
"sailing-trial","189","787677","0.0-11.0-154.0","","","","false","","","","","","","","","","2841","","3887.5","","2","0","arrowright","1","arrowleft","[0.15,0.85,0.675,0.325]","","",""
"sailing-trial","190","789489","0.0-11.0-155.0","","","","false","","","","","","","","","","null","","148","","1","1","null","null","arrowup","[0.15,0.85,0.675,0.325]","","",""
"sailing-trial","191","792806","0.0-11.0-156.0","","","","false","","","","","","","","","","362.40000000596046","","132.89999999850988","","1","1","arrowleft","0","arrowright","[0.15,0.85,0.675,0.325]","","",""
"sailing-trial","192","794555","0.0-11.0-157.0","","","","false","","","","","","","","","","null","","82","","2","1","null","null","arrowup","[0.15,0.85,0.675,0.325]","","",""
"sailing-trial","193","805805","0.0-11.0-158.0","","","","false","","","","","","","","","","41.70000000298023","","87.89999999850988","","1","1","arrowleft","0","arrowright","[0.15,0.85,0.675,0.325]","","",""
"sailing-trial","194","811005","0.0-11.0-159.0","","","","false","","","","","","","","","","null","","3860.7000000029802","","3","0","null","null","arrowup","[0.15,0.85,0.675,0.325]","","",""
"sailing-trial","195","813393","0.0-11.0-160.0","","","","false","","","","","","","","","","225.5","","19.69999999552965","","0","0","arrowleft","0","arrowleft","[0.15,0.85,0.675,0.325]","","",""
"sailing-trial","196","815171","0.0-11.0-161.0","","","","false","","","","","","","","","","null","","98.20000000298023","","1","1","null","null","arrowup","[0.15,0.85,0.675,0.325]","","",""
"sailing-trial","197","817789","0.0-11.0-162.0","","","","false","","","","","","","","","","134.89999999850988","","102.10000000149012","","0","0","arrowleft","0","arrowleft","[0.15,0.85,0.675,0.325]","","",""
"sailing-trial","198","819621","0.0-11.0-163.0","","","","false","","","","","","","","","","null","","218.60000000149012","","1","1","null","null","arrowup","[0.15,0.85,0.675,0.325]","","",""
"sailing-trial","199","821985","0.0-11.0-164.0","","","","false","","","","","","","","","","133.39999999850988","","146.5","","3","0","arrowright","1","arrowright","[0.15,0.85,0.675,0.325]","","",""
"sailing-trial","200","823820","0.0-11.0-165.0","","","","false","","","","","","","","","","null","","247.79999999701977","","2","1","null","null","arrowup","[0.15,0.85,0.675,0.325]","","",""
"sailing-trial","201","827638","0.0-11.0-166.0","","","","false","","","","","","","","","","193.90000000596046","","7.100000001490116","","3","1","arrowright","1","arrowright","[0.15,0.85,0.675,0.325]","","",""
"sailing-trial","202","828983","0.0-11.0-167.0","","","","false","","","","","","","","","","null","","80.60000000149012","","3","0","null","null","arrowup","[0.15,0.85,0.675,0.325]","","",""
"sailing-trial","203","832954","0.0-11.0-168.0","","","","false","","","","","","","","","","176.89999999850988","","209.39999999850988","","3","1","arrowright","1","arrowright","[0.15,0.85,0.675,0.325]","","",""
"sailing-trial","204","836562","0.0-11.0-169.0","","","","false","","","","","","","","","","null","","580","","0","0","null","null","arrowup","[0.15,0.85,0.675,0.325]","","",""
"sailing-trial","205","844483","0.0-11.0-170.0","","","","false","","","","","","","","","","5600.80000000447","","143.89999999850988","","0","0","arrowleft","0","arrowleft","[0.15,0.85,0.675,0.325]","","",""
"sailing-trial","206","846452","0.0-11.0-171.0","","","","false","","","","","","","","","","null","","938.8999999985099","","1","0","null","null","arrowup","[0.15,0.85,0.675,0.325]","","",""
"sailing-trial","207","849019","0.0-11.0-172.0","","","","false","","","","","","","","","","147.5","","125.19999999552965","","1","0","arrowleft","0","arrowright","[0.325,0.675,0.85,0.15]","","",""
"sailing-trial","208","850367","0.0-11.0-173.0","","","","false","","","","","","","","","","null","","75.5","","0","0","null","null","arrowup","[0.325,0.675,0.85,0.15]","","",""
"sailing-trial","209","859285","0.0-11.0-174.0","","","","false","","","","","","","","","","453.19999999552965","","246.10000000149012","","2","1","arrowright","1","arrowleft","[0.325,0.675,0.85,0.15]","","",""
"sailing-trial","210","861136","0.0-11.0-175.0","","","","false","","","","","","","","","","null","","138.29999999701977","","2","1","null","null","arrowup","[0.325,0.675,0.85,0.15]","","",""
"sailing-trial","211","865871","0.0-11.0-176.0","","","","false","","","","","","","","","","637.2999999970198","","85.5","","1","0","arrowleft","0","arrowright","[0.325,0.675,0.85,0.15]","","",""
"sailing-trial","212","868974","0.0-11.0-177.0","","","","false","","","","","","","","","","null","","72.69999999552965","","3","0","null","null","arrowup","[0.325,0.675,0.85,0.15]","","",""
"sailing-trial","213","874102","0.0-11.0-178.0","","","","false","","","","","","","","","","32.19999999552965","","568.3999999985099","","1","1","arrowleft","0","arrowright","[0.325,0.675,0.85,0.15]","","",""
"sailing-trial","214","875280","0.0-11.0-179.0","","","","false","","","","","","","","","","null","","8.600000001490116","","3","0","null","null","arrowup","[0.325,0.675,0.85,0.15]","","",""
"sailing-trial","215","886118","0.0-11.0-180.0","","","","false","","","","","","","","","","217.79999999701977","","643.3999999985099","","2","1","arrowright","1","arrowleft","[0.325,0.675,0.85,0.15]","","",""
"sailing-trial","216","896552","0.0-11.0-181.0","","","","false","","","","","","","","","","null","","191.80000000447035","","0","1","null","null","arrowup","[0.325,0.675,0.85,0.15]","","",""
"sailing-trial","217","900672","0.0-11.0-182.0","","","","false","","","","","","","","","","3.2999999970197678","","85","","3","0","arrowright","1","arrowright","[0.325,0.675,0.85,0.15]","","",""
"sailing-trial","218","915946","0.0-11.0-183.0","","","","true","","","","","","","","","","null","","267.70000000298023","","1","1","null","null","arrowup","[0.325,0.675,0.85,0.15]","","",""
"sailing-trial","219","918377","0.0-11.0-184.0","","","","false","","","","","","","","","","16.5","","181.89999999850988","","3","0","arrowright","1","arrowright","[0.325,0.675,0.85,0.15]","","",""
"sailing-trial","220","919502","0.0-11.0-185.0","","","","false","","","","","","","","","","null","","69","","0","0","null","null","arrowup","[0.325,0.675,0.85,0.15]","","",""
"sailing-trial","221","923319","0.0-11.0-186.0","","","","false","","","","","","","","","","877.0999999940395","","169.5","","2","1","arrowright","1","arrowleft","[0.325,0.675,0.85,0.15]","","",""
"sailing-trial","222","925267","0.0-11.0-187.0","","","","false","","","","","","","","","","null","","164.10000000149012","","2","1","null","null","arrowup","[0.325,0.675,0.85,0.15]","","",""
"sailing-trial","223","927635","0.0-11.0-188.0","","","","false","","","","","","","","","","127.19999999552965","","178","","1","0","arrowleft","0","arrowright","[0.325,0.675,0.85,0.15]","","",""
"sailing-trial","224","929111","0.0-11.0-189.0","","","","false","","","","","","","","","","null","","67","","3","0","null","null","arrowup","[0.325,0.675,0.85,0.15]","","",""
"sailing-trial","225","932135","0.0-11.0-190.0","","","","false","","","","","","","","","","109.89999999850988","","290.5","","2","1","arrowright","1","arrowleft","[0.15,0.85,0.675,0.325]","","",""
"sailing-trial","226","934842","0.0-11.0-191.0","","","","false","","","","","","","","","","null","","1079.2000000029802","","2","0","null","null","arrowup","[0.15,0.85,0.675,0.325]","","",""
"sailing-trial","227","937684","0.0-11.0-192.0","","","","false","","","","","","","","","","54.30000000447035","","207","","2","1","arrowright","1","arrowleft","[0.15,0.85,0.675,0.325]","","",""
"sailing-trial","228","940517","0.0-11.0-193.0","","","","false","","","","","","","","","","null","","1190.7000000029802","","2","1","null","null","arrowup","[0.15,0.85,0.675,0.325]","","",""
"sailing-trial","229","943733","0.0-11.0-194.0","","","","false","","","","","","","","","","84.89999999850988","","527.1000000014901","","2","1","arrowright","1","arrowleft","[0.15,0.85,0.675,0.325]","","",""
"sailing-trial","230","946132","0.0-11.0-195.0","","","","false","","","","","","","","","","null","","1282.2999999970198","","0","0","null","null","arrowup","[0.15,0.85,0.675,0.325]","","",""
"sailing-trial","231","949384","0.0-11.0-196.0","","","","false","","","","","","","","","","120.10000000149012","","427","","2","1","arrowright","1","arrowleft","[0.15,0.85,0.675,0.325]","","",""
"sailing-trial","232","950536","0.0-11.0-197.0","","","","false","","","","","","","","","","null","","124.70000000298023","","3","0","null","null","arrowup","[0.15,0.85,0.675,0.325]","","",""
"sailing-trial","233","954600","0.0-11.0-198.0","","","","false","","","","","","","","","","697.6999999955297","","705.8000000044703","","2","1","arrowright","1","arrowleft","[0.15,0.85,0.675,0.325]","","",""
"sailing-trial","234","956517","0.0-11.0-199.0","","","","false","","","","","","","","","","null","","142.10000000149012","","0","1","null","null","arrowup","[0.15,0.85,0.675,0.325]","","",""
"sailing-trial","235","959868","0.0-11.0-200.0","","","","false","","","","","","","","","","1089.5","","208.69999999552965","","3","0","arrowright","1","arrowright","[0.15,0.85,0.675,0.325]","","",""
"sailing-trial","236","966099","0.0-11.0-201.0","","","","false","","","","","","","","","","null","","1274.5","","0","1","null","null","arrowup","[0.15,0.85,0.675,0.325]","","",""
"sailing-trial","237","976895","0.0-11.0-202.0","","","","false","","","","","","","","","","198.39999999850988","","8460.89999999851","","3","0","arrowright","1","arrowright","[0.15,0.85,0.675,0.325]","","",""
"sailing-trial","238","978179","0.0-11.0-203.0","","","","false","","","","","","","","","","null","","186","","3","0","null","null","arrowup","[0.15,0.85,0.675,0.325]","","",""
"sailing-trial","239","980819","0.0-11.0-204.0","","","","false","","","","","","","","","","516","","47.79999999701977","","3","0","arrowright","1","arrowright","[0.15,0.85,0.675,0.325]","","",""
"sailing-trial","240","983309","0.0-11.0-205.0","","","","false","","","","","","","","","","null","","1244","","1","0","null","null","arrowup","[0.15,0.85,0.675,0.325]","","",""
"sailing-trial","241","986025","0.0-11.0-206.0","","","","false","","","","","","","","","","122.39999999850988","","398.70000000298023","","2","0","arrowright","1","arrowleft","[0.675,0.325,0.15,0.85]","","",""
"sailing-trial","242","987799","0.0-11.0-207.0","","","","false","","","","","","","","","","null","","198.80000000447035","","0","1","null","null","arrowup","[0.675,0.325,0.15,0.85]","","",""
"sailing-trial","243","990633","0.0-11.0-208.0","","","","false","","","","","","","","","","63.100000001490116","","160.20000000298023","","3","1","arrowright","1","arrowright","[0.675,0.325,0.15,0.85]","","",""
"sailing-trial","244","992416","0.0-11.0-209.0","","","","false","","","","","","","","","","null","","177.5","","3","1","null","null","arrowup","[0.675,0.325,0.15,0.85]","","",""
"sailing-trial","245","995519","0.0-11.0-210.0","","","","false","","","","","","","","","","852.5","","4.800000004470348","","0","0","arrowleft","0","arrowleft","[0.675,0.325,0.15,0.85]","","",""
"sailing-trial","246","996950","0.0-11.0-211.0","","","","false","","","","","","","","","","null","","249.5","","1","0","null","null","arrowup","[0.675,0.325,0.15,0.85]","","",""
"sailing-trial","247","1005414","0.0-11.0-212.0","","","","false","","","","","","","","","","1236.8999999985099","","391.79999999701977","","1","1","arrowleft","0","arrowright","[0.675,0.325,0.15,0.85]","","",""
"sailing-trial","248","1007147","0.0-11.0-213.0","","","","false","","","","","","","","","","null","","186.40000000596046","","0","1","null","null","arrowup","[0.675,0.325,0.15,0.85]","","",""
"sailing-trial","249","1011164","0.0-11.0-214.0","","","","false","","","","","","","","","","195","","1162.1999999955297","","3","1","arrowright","1","arrowright","[0.675,0.325,0.15,0.85]","","",""
"sailing-trial","250","1016548","0.0-11.0-215.0","","","","false","","","","","","","","","","null","","355.6000000014901","","2","1","null","null","arrowup","[0.675,0.325,0.15,0.85]","","",""
"sailing-trial","251","1021299","0.0-11.0-216.0","","","","false","","","","","","","","","","942.7000000029802","","535.6000000014901","","3","1","arrowright","1","arrowright","[0.675,0.325,0.15,0.85]","","",""
"sailing-trial","252","1023420","0.0-11.0-217.0","","","","false","","","","","","","","","","null","","833.3999999985099","","2","0","null","null","arrowup","[0.675,0.325,0.15,0.85]","","",""
"sailing-trial","253","1025783","0.0-11.0-218.0","","","","false","","","","","","","","","","127","","114.69999999552965","","1","0","arrowleft","0","arrowright","[0.675,0.325,0.15,0.85]","","",""
"sailing-trial","254","1027720","0.0-11.0-219.0","","","","false","","","","","","","","","","null","","31.600000001490116","","0","1","null","null","arrowup","[0.675,0.325,0.15,0.85]","","",""
"sailing-trial","255","1037762","0.0-11.0-220.0","","","","false","","","","","","","","","","424.5","","156.19999999552965","","3","1","arrowright","1","arrowright","[0.675,0.325,0.15,0.85]","","",""
"sailing-trial","256","1044581","0.0-11.0-221.0","","","","false","","","","","","","","","","null","","2171.39999999851","","0","1","null","null","arrowup","[0.675,0.325,0.15,0.85]","","",""
"sailing-trial","257","1047263","0.0-11.0-222.0","","","","false","","","","","","","","","","287.29999999701977","","113.29999999701977","","0","0","arrowleft","0","arrowleft","[0.675,0.325,0.15,0.85]","","",""
"sailing-trial","258","1048315","0.0-11.0-223.0","","","","false","","","","","","","","","","null","","6.699999995529652","","2","0","null","null","arrowup","[0.675,0.325,0.15,0.85]","","",""
"sailing-trial","259","1051397","0.0-11.0-224.0","","","","false","","","","","","","","","","112.19999999552965","","249.39999999850988","","3","1","arrowright","1","arrowright","[0.85,0.15,0.325,0.675]","","",""
"sailing-trial","260","1053498","0.0-11.0-225.0","","","","false","","","","","","","","","","null","","293.29999999701977","","3","1","null","null","arrowup","[0.85,0.15,0.325,0.675]","","",""
"sailing-trial","261","1056764","0.0-11.0-226.0","","","","false","","","","","","","","","","386.29999999701977","","125.20000000298023","","3","1","arrowright","1","arrowright","[0.85,0.15,0.325,0.675]","","",""
"sailing-trial","262","1058279","0.0-11.0-227.0","","","","false","","","","","","","","","","null","","155.90000000596046","","0","0","null","null","arrowup","[0.85,0.15,0.325,0.675]","","",""
"sailing-trial","263","1061428","0.0-11.0-228.0","","","","false","","","","","","","","","","10.600000001490116","","381.80000000447035","","3","1","arrowright","1","arrowright","[0.85,0.15,0.325,0.675]","","",""
"sailing-trial","264","1063230","0.0-11.0-229.0","","","","false","","","","","","","","","","null","","223.89999999850988","","0","1","null","null","arrowup","[0.85,0.15,0.325,0.675]","","",""
"sailing-trial","265","1067546","0.0-11.0-230.0","","","","false","","","","","","","","","","0.5","","162.20000000298023","","1","1","arrowleft","0","arrowright","[0.85,0.15,0.325,0.675]","","",""
"sailing-trial","266","1069154","0.0-11.0-231.0","","","","false","","","","","","","","","","null","","331.1000000014901","","1","0","null","null","arrowup","[0.85,0.15,0.325,0.675]","","",""
"sailing-trial","267","1071912","0.0-11.0-232.0","","","","false","","","","","","","","","","70.79999999701977","","122.89999999850988","","0","1","arrowleft","0","arrowleft","[0.85,0.15,0.325,0.675]","","",""
"sailing-trial","268","1073627","0.0-11.0-233.0","","","","false","","","","","","","","","","null","","106","","2","0","null","null","arrowup","[0.85,0.15,0.325,0.675]","","",""
"sailing-trial","269","1077280","0.0-11.0-234.0","","","","false","","","","","","","","","","384.70000000298023","","292.20000000298023","","3","1","arrowright","1","arrowright","[0.85,0.15,0.325,0.675]","","",""
"sailing-trial","270","1078909","0.0-11.0-235.0","","","","false","","","","","","","","","","null","","513.5","","2","0","null","null","arrowup","[0.85,0.15,0.325,0.675]","","",""
"sailing-trial","271","1082449","0.0-11.0-236.0","","","","false","","","","","","","","","","748.1999999955297","","220.40000000596046","","2","0","arrowright","1","arrowleft","[0.85,0.15,0.325,0.675]","","",""
"sailing-trial","272","1084929","0.0-11.0-237.0","","","","false","","","","","","","","","","null","","356.6000000014901","","1","1","null","null","arrowup","[0.85,0.15,0.325,0.675]","","",""
"sailing-trial","273","1092629","0.0-11.0-238.0","","","","false","","","","","","","","","","121.89999999850988","","5385.5","","3","0","arrowright","1","arrowright","[0.85,0.15,0.325,0.675]","","",""
"sailing-trial","274","1094311","0.0-11.0-239.0","","","","false","","","","","","","","","","null","","126.10000000149012","","2","1","null","null","arrowup","[0.85,0.15,0.325,0.675]","","",""
"sailing-trial","275","1097284","0.0-11.0-240.0","","","","false","","","","","","","","","","127.89999999850988","","641.3999999985099","","0","0","arrowleft","0","arrowleft","[0.675,0.325,0.15,0.85]","","",""
"sailing-trial","276","1098439","0.0-11.0-241.0","","","","false","","","","","","","","","","null","","0.09999999403953552","","2","0","null","null","arrowup","[0.675,0.325,0.15,0.85]","","",""
"sailing-trial","277","1103129","0.0-11.0-242.0","","","","false","","","","","","","","","","555.5999999940395","","100","","0","0","arrowleft","0","arrowleft","[0.675,0.325,0.15,0.85]","","",""
"sailing-trial","278","1110845","0.0-11.0-243.0","","","","false","","","","","","","","","","null","","185.89999999850988","","1","1","null","null","arrowup","[0.675,0.325,0.15,0.85]","","",""
"sailing-trial","279","1113364","0.0-11.0-244.0","","","","false","","","","","","","","","","134","","95.10000000149012","","2","0","arrowright","1","arrowleft","[0.675,0.325,0.15,0.85]","","",""
"sailing-trial","280","1114767","0.0-11.0-245.0","","","","false","","","","","","","","","","null","","115","","2","0","null","null","arrowup","[0.675,0.325,0.15,0.85]","","",""
"sailing-trial","281","1120213","0.0-11.0-246.0","","","","false","","","","","","","","","","1281.1999999955297","","145","","2","0","arrowright","1","arrowleft","[0.675,0.325,0.15,0.85]","","",""
"sailing-trial","282","1125678","0.0-11.0-247.0","","","","false","","","","","","","","","","null","","222.19999999552965","","3","1","null","null","arrowup","[0.675,0.325,0.15,0.85]","","",""
"sailing-trial","283","1134978","0.0-11.0-248.0","","","","false","","","","","","","","","","201.69999999552965","","11.400000005960464","","3","1","arrowright","1","arrowright","[0.675,0.325,0.15,0.85]","","",""
"sailing-trial","284","1138880","0.0-11.0-249.0","","","","false","","","","","","","","","","null","","894.3000000044703","","1","0","null","null","arrowup","[0.675,0.325,0.15,0.85]","","",""
"sailing-trial","285","1141413","0.0-11.0-250.0","","","","false","","","","","","","","","","86.5","","408.6000000014901","","2","0","arrowright","1","arrowleft","[0.675,0.325,0.15,0.85]","","",""
"sailing-trial","286","1146511","0.0-11.0-251.0","","","","false","","","","","","","","","","null","","20.200000002980232","","3","1","null","null","arrowup","[0.675,0.325,0.15,0.85]","","",""
"sailing-trial","287","1156291","0.0-11.0-252.0","","","","false","","","","","","","","","","82.70000000298023","","266.70000000298023","","3","1","arrowright","1","arrowright","[0.675,0.325,0.15,0.85]","","",""
"sailing-trial","288","1158193","0.0-11.0-253.0","","","","false","","","","","","","","","","null","","133.39999999850988","","1","1","null","null","arrowup","[0.675,0.325,0.15,0.85]","","",""
"sailing-trial","289","1160975","0.0-11.0-254.0","","","","false","","","","","","","","","","101.60000000149012","","126.60000000149012","","3","1","arrowright","1","arrowright","[0.675,0.325,0.15,0.85]","","",""
"sailing-trial","290","1162992","0.0-11.0-255.0","","","","false","","","","","","","","","","null","","171","","3","1","null","null","arrowup","[0.675,0.325,0.15,0.85]","","",""
"sailing-trial","291","1165508","0.0-11.0-256.0","","","","false","","","","","","","","","","256.79999999701977","","120.80000000447035","","2","0","arrowright","1","arrowleft","[0.15,0.85,0.675,0.325]","","",""
"sailing-trial","292","1166836","0.0-11.0-257.0","","","","false","","","","","","","","","","null","","41.19999999552965","","0","0","null","null","arrowup","[0.15,0.85,0.675,0.325]","","",""
"sailing-trial","293","1171310","0.0-11.0-258.0","","","","false","","","","","","","","","","139","","309.8999999985099","","3","0","arrowright","1","arrowright","[0.15,0.85,0.675,0.325]","","",""
"sailing-trial","294","1179659","0.0-11.0-259.0","","","","false","","","","","","","","","","null","","17.299999997019768","","1","1","null","null","arrowup","[0.15,0.85,0.675,0.325]","","",""
"sailing-trial","295","1188042","0.0-11.0-260.0","","","","false","","","","","","","","","","267.8999999985099","","66.80000000447035","","3","1","arrowright","1","arrowright","[0.15,0.85,0.675,0.325]","","",""
"sailing-trial","296","1194574","0.0-11.0-261.0","","","","false","","","","","","","","","","null","","206.90000000596046","","2","1","null","null","arrowup","[0.15,0.85,0.675,0.325]","","",""
"sailing-trial","297","1197809","0.0-11.0-262.0","","","","false","","","","","","","","","","190","","205.10000000149012","","2","1","arrowright","1","arrowleft","[0.15,0.85,0.675,0.325]","","",""
"sailing-trial","298","1199151","0.0-11.0-263.0","","","","false","","","","","","","","","","null","","89.30000000447035","","3","0","null","null","arrowup","[0.15,0.85,0.675,0.325]","","",""
"sailing-trial","299","1202056","0.0-11.0-264.0","","","","false","","","","","","","","","","41","","111.10000000149012","","3","1","arrowright","1","arrowright","[0.15,0.85,0.675,0.325]","","",""
"sailing-trial","300","1204092","0.0-11.0-265.0","","","","false","","","","","","","","","","null","","217.89999999850988","","2","1","null","null","arrowup","[0.15,0.85,0.675,0.325]","","",""
"sailing-trial","301","1207125","0.0-11.0-266.0","","","","false","","","","","","","","","","153.10000000149012","","264","","1","1","arrowleft","0","arrowright","[0.15,0.85,0.675,0.325]","","",""
"sailing-trial","302","1209240","0.0-11.0-267.0","","","","false","","","","","","","","","","null","","477.8999999985099","","2","1","null","null","arrowup","[0.15,0.85,0.675,0.325]","","",""
"sailing-trial","303","1214544","0.0-11.0-268.0","","","","false","","","","","","","","","","1108.1000000014901","","179","","3","0","arrowright","1","arrowright","[0.15,0.85,0.675,0.325]","","",""
"sailing-trial","304","1218757","0.0-11.0-269.0","","","","false","","","","","","","","","","null","","79.80000000447035","","0","1","null","null","arrowup","[0.15,0.85,0.675,0.325]","","",""
"sailing-trial","305","1229923","0.0-11.0-270.0","","","","false","","","","","","","","","","685","","2393.60000000149","","2","1","arrowright","1","arrowleft","[0.15,0.85,0.675,0.325]","","",""
"sailing-trial","306","1233077","0.0-11.0-271.0","","","","false","","","","","","","","","","null","","124.70000000298023","","2","0","null","null","arrowup","[0.15,0.85,0.675,0.325]","","",""
"sailing-trial","307","1239773","0.0-11.0-272.0","","","","false","","","","","","","","","","1.2999999970197678","","310.59999999403954","","2","1","arrowright","1","arrowleft","[0.85,0.15,0.325,0.675]","","",""
"sailing-trial","308","1246592","0.0-11.0-273.0","","","","false","","","","","","","","","","null","","3817.5","","1","0","null","null","arrowup","[0.85,0.15,0.325,0.675]","","",""
"sailing-trial","309","1251359","0.0-11.0-274.0","","","","false","","","","","","","","","","303.1000000014901","","443.79999999701977","","1","0","arrowleft","0","arrowright","[0.85,0.15,0.325,0.675]","","",""
"sailing-trial","310","1257971","0.0-11.0-275.0","","","","false","","","","","","","","","","null","","23.100000001490116","","3","1","null","null","arrowup","[0.85,0.15,0.325,0.675]","","",""
"sailing-trial","311","1260824","0.0-11.0-276.0","","","","false","","","","","","","","","","79.89999999850988","","24.100000001490116","","0","1","arrowleft","0","arrowleft","[0.85,0.15,0.325,0.675]","","",""
"sailing-trial","312","1262938","0.0-11.0-277.0","","","","false","","","","","","","","","","null","","452.70000000298023","","0","1","null","null","arrowup","[0.85,0.15,0.325,0.675]","","",""
"sailing-trial","313","1265221","0.0-11.0-278.0","","","","false","","","","","","","","","","115.39999999850988","","78.39999999850988","","1","0","arrowleft","0","arrowright","[0.85,0.15,0.325,0.675]","","",""
"sailing-trial","314","1266428","0.0-11.0-279.0","","","","false","","","","","","","","","","null","","53.399999998509884","","2","0","null","null","arrowup","[0.85,0.15,0.325,0.675]","","",""
"sailing-trial","315","1268783","0.0-11.0-280.0","","","","false","","","","","","","","","","13.799999997019768","","102.59999999403954","","0","0","arrowleft","0","arrowleft","[0.85,0.15,0.325,0.675]","","",""
"sailing-trial","316","1270606","0.0-11.0-281.0","","","","false","","","","","","","","","","null","","158.29999999701977","","3","1","null","null","arrowup","[0.85,0.15,0.325,0.675]","","",""
"sailing-trial","317","1273856","0.0-11.0-282.0","","","","false","","","","","","","","","","21.80000000447035","","150.89999999850988","","0","1","arrowleft","0","arrowleft","[0.85,0.15,0.325,0.675]","","",""
"sailing-trial","318","1274995","0.0-11.0-283.0","","","","false","","","","","","","","","","null","","32.399999998509884","","1","0","null","null","arrowup","[0.85,0.15,0.325,0.675]","","",""
"sailing-trial","319","1282923","0.0-11.0-284.0","","","","false","","","","","","","","","","59.29999999701977","","72.70000000298023","","0","1","arrowleft","0","arrowleft","[0.85,0.15,0.325,0.675]","","",""
"sailing-trial","320","1284655","0.0-11.0-285.0","","","","false","","","","","","","","","","null","","208.20000000298023","","2","1","null","null","arrowup","[0.85,0.15,0.325,0.675]","","",""
"sailing-trial","321","1288189","0.0-11.0-286.0","","","","false","","","","","","","","","","90.70000000298023","","394.30000000447035","","0","1","arrowleft","0","arrowleft","[0.85,0.15,0.325,0.675]","","",""
"sailing-trial","322","1296837","0.0-11.0-287.0","","","","false","","","","","","","","","","null","","100.69999999552965","","0","1","null","null","arrowup","[0.85,0.15,0.325,0.675]","","",""
"sailing-trial","323","1299852","0.0-11.0-288.0","","","","false","","","","","","","","","","297.70000000298023","","97.10000000149012","","0","1","arrowleft","0","arrowleft","[0.85,0.15,0.325,0.675]","","",""
"sailing-trial","324","1301590","0.0-11.0-289.0","","","","false","","","","","","","","","","null","","28.100000001490116","","3","1","null","null","arrowup","[0.85,0.15,0.325,0.675]","","",""
"sailing-trial","325","1304539","0.0-11.0-290.0","","","","false","","","","","","","","","","152.20000000298023","","200.59999999403954","","0","1","arrowleft","0","arrowleft","[0.85,0.15,0.325,0.675]","","",""
"sailing-trial","326","1306270","0.0-11.0-291.0","","","","false","","","","","","","","","","null","","103.29999999701977","","3","1","null","null","arrowup","[0.85,0.15,0.325,0.675]","","",""
"sailing-trial","327","1309372","0.0-11.0-292.0","","","","false","","","","","","","","","","214","","95.89999999850988","","0","1","arrowleft","0","arrowleft","[0.675,0.325,0.15,0.85]","","",""
"sailing-trial","328","1311205","0.0-11.0-293.0","","","","false","","","","","","","","","","null","","236.5","","3","1","null","null","arrowup","[0.675,0.325,0.15,0.85]","","",""
"sailing-trial","329","1314319","0.0-11.0-294.0","","","","false","","","","","","","","","","154.39999999850988","","437.29999999701977","","0","1","arrowleft","0","arrowleft","[0.675,0.325,0.15,0.85]","","",""
"sailing-trial","330","1316020","0.0-11.0-295.0","","","","false","","","","","","","","","","null","","123.79999999701977","","3","1","null","null","arrowup","[0.675,0.325,0.15,0.85]","","",""
"sailing-trial","331","1318536","0.0-11.0-296.0","","","","false","","","","","","","","","","42.600000001490116","","162.79999999701977","","0","0","arrowleft","0","arrowleft","[0.675,0.325,0.15,0.85]","","",""
"sailing-trial","332","1333594","0.0-11.0-297.0","","","","true","","","","","","","","","","null","","51","","0","1","null","null","arrowup","[0.675,0.325,0.15,0.85]","","",""
"sailing-trial","333","1336603","0.0-11.0-298.0","","","","false","","","","","","","","","","188.69999999552965","","122.29999999701977","","0","1","arrowleft","0","arrowleft","[0.675,0.325,0.15,0.85]","","",""
"sailing-trial","334","1337938","0.0-11.0-299.0","","","","false","","","","","","","","","","null","","97.60000000149012","","2","0","null","null","arrowup","[0.675,0.325,0.15,0.85]","","",""
"sailing-trial","335","1342696","0.0-11.0-300.0","","","","false","","","","","","","","","","135.59999999403954","","2204.7000000029802","","0","0","arrowleft","0","arrowleft","[0.675,0.325,0.15,0.85]","","",""
"sailing-trial","336","1343900","0.0-11.0-301.0","","","","false","","","","","","","","","","null","","3.5","","1","0","null","null","arrowup","[0.675,0.325,0.15,0.85]","","",""
"sailing-trial","337","1347354","0.0-11.0-302.0","","","","false","","","","","","","","","","93.60000000149012","","610.2000000029802","","0","1","arrowleft","0","arrowleft","[0.675,0.325,0.15,0.85]","","",""
"sailing-trial","338","1349151","0.0-11.0-303.0","","","","false","","","","","","","","","","null","","138.60000000149012","","3","1","null","null","arrowup","[0.675,0.325,0.15,0.85]","","",""
"sailing-trial","339","1351465","0.0-11.0-304.0","","","","false","","","","","","","","","","117.29999999701977","","126.70000000298023","","0","0","arrowleft","0","arrowleft","[0.675,0.325,0.15,0.85]","","",""
"sailing-trial","340","1353287","0.0-11.0-305.0","","","","false","","","","","","","","","","null","","24.5","","0","1","null","null","arrowup","[0.675,0.325,0.15,0.85]","","",""
"sailing-trial","341","1356352","0.0-11.0-306.0","","","","false","","","","","","","","","","383.6000000014901","","150.60000000149012","","0","1","arrowleft","0","arrowleft","[0.675,0.325,0.15,0.85]","","",""
"sailing-trial","342","1358819","0.0-11.0-307.0","","","","false","","","","","","","","","","null","","975.1999999955297","","2","0","null","null","arrowup","[0.675,0.325,0.15,0.85]","","",""
"sailing-trial","343","1367303","0.0-11.0-308.0","","","","false","","","","","","","","","","1316.2000000029802","","17.100000001490116","","3","1","arrowright","1","arrowright","[0.675,0.325,0.15,0.85]","","",""
"sailing-trial","344","1369136","0.0-11.0-309.0","","","","false","","","","","","","","","","null","","111.10000000149012","","2","1","null","null","arrowup","[0.675,0.325,0.15,0.85]","","",""
"sailing-trial","345","1371530","0.0-11.0-310.0","","","","false","","","","","","","","","","153.5","","76.70000000298023","","0","0","arrowleft","0","arrowleft","[0.675,0.325,0.15,0.85]","","",""
"sailing-trial","346","1373567","0.0-11.0-311.0","","","","false","","","","","","","","","","null","","144.09999999403954","","3","1","null","null","arrowup","[0.675,0.325,0.15,0.85]","","",""
"sailing-trial","347","1379586","0.0-11.0-312.0","","","","false","","","","","","","","","","2869.5","","536.6000000014901","","2","1","arrowright","1","arrowleft","[0.85,0.15,0.325,0.675]","","",""
"sailing-trial","348","1381368","0.0-11.0-313.0","","","","false","","","","","","","","","","null","","179.20000000298023","","3","1","null","null","arrowup","[0.85,0.15,0.325,0.675]","","",""
"sailing-trial","349","1385885","0.0-11.0-314.0","","","","false","","","","","","","","","","1802.6000000014901","","28.799999997019768","","0","1","arrowleft","0","arrowleft","[0.85,0.15,0.325,0.675]","","",""
"sailing-trial","350","1391659","0.0-11.0-315.0","","","","false","","","","","","","","","","null","","4301.4000000059605","","1","0","null","null","arrowup","[0.85,0.15,0.325,0.675]","","",""
"sailing-trial","351","1394289","0.0-11.0-316.0","","","","false","","","","","","","","","","456.29999999701977","","23.19999999552965","","0","0","arrowleft","0","arrowleft","[0.85,0.15,0.325,0.675]","","",""
"sailing-trial","352","1396268","0.0-11.0-317.0","","","","false","","","","","","","","","","null","","193.09999999403954","","3","1","null","null","arrowup","[0.85,0.15,0.325,0.675]","","",""
"sailing-trial","353","1399601","0.0-11.0-318.0","","","","false","","","","","","","","","","687.5","","40.5","","0","1","arrowleft","0","arrowleft","[0.85,0.15,0.325,0.675]","","",""
"sailing-trial","354","1401301","0.0-11.0-319.0","","","","false","","","","","","","","","","null","","44.20000000298023","","0","1","null","null","arrowup","[0.85,0.15,0.325,0.675]","","",""
"sailing-trial","355","1409116","0.0-11.0-320.0","","","","false","","","","","","","","","","5005.39999999851","","109.60000000149012","","2","1","arrowright","1","arrowleft","[0.85,0.15,0.325,0.675]","","",""
"sailing-trial","356","1410802","0.0-11.0-321.0","","","","false","","","","","","","","","","null","","138.39999999850988","","3","1","null","null","arrowup","[0.85,0.15,0.325,0.675]","","",""
"sailing-trial","357","1413751","0.0-11.0-322.0","","","","false","","","","","","","","","","107.79999999701977","","76.5","","0","1","arrowleft","0","arrowleft","[0.85,0.15,0.325,0.675]","","",""
"sailing-trial","358","1420295","0.0-11.0-323.0","","","","false","","","","","","","","","","null","","5486.10000000149","","0","0","null","null","arrowup","[0.85,0.15,0.325,0.675]","","",""
"sailing-trial","359","1422634","0.0-11.0-324.0","","","","false","","","","","","","","","","130.70000000298023","","143.20000000298023","","2","0","arrowright","1","arrowleft","[0.85,0.15,0.325,0.675]","","",""
"sailing-trial","360","1423987","0.0-11.0-325.0","","","","false","","","","","","","","","","null","","143.10000000149012","","1","0","null","null","arrowup","[0.85,0.15,0.325,0.675]","","",""
"sailing-trial","361","1426414","0.0-11.0-326.0","","","","false","","","","","","","","","","228.60000000149012","","22.900000005960464","","1","0","arrowleft","0","arrowright","[0.85,0.15,0.325,0.675]","","",""
"sailing-trial","362","1427816","0.0-11.0-327.0","","","","false","","","","","","","","","","null","","91.79999999701977","","1","0","null","null","arrowup","[0.85,0.15,0.325,0.675]","","",""
"sailing-trial","363","1431015","0.0-11.0-328.0","","","","false","","","","","","","","","","227.30000000447035","","259.69999999552965","","0","1","arrowleft","0","arrowleft","[0.85,0.15,0.325,0.675]","","",""
"sailing-trial","364","1434051","0.0-11.0-329.0","","","","false","","","","","","","","","","null","","16.700000002980232","","1","0","null","null","arrowup","[0.85,0.15,0.325,0.675]","","",""
"sailing-trial","365","1438191","0.0-11.0-330.0","","","","false","","","","","","","","","","1669.1999999955297","","202.5","","2","0","arrowright","1","arrowleft","[0.675,0.325,0.15,0.85]","","",""
"sailing-trial","366","1439967","0.0-11.0-331.0","","","","false","","","","","","","","","","null","","1.3000000044703484","","3","1","null","null","arrowup","[0.675,0.325,0.15,0.85]","","",""
"sailing-trial","367","1442414","0.0-11.0-332.0","","","","false","","","","","","","","","","73.10000000149012","","270.1000000014901","","0","0","arrowleft","0","arrowleft","[0.675,0.325,0.15,0.85]","","",""
"sailing-trial","368","1444484","0.0-11.0-333.0","","","","false","","","","","","","","","","null","","214.5","","1","1","null","null","arrowup","[0.675,0.325,0.15,0.85]","","",""
"sailing-trial","369","1446890","0.0-11.0-334.0","","","","false","","","","","","","","","","184.5","","117.89999999850988","","0","0","arrowleft","0","arrowleft","[0.675,0.325,0.15,0.85]","","",""
"sailing-trial","370","1448517","0.0-11.0-335.0","","","","false","","","","","","","","","","null","","45.20000000298023","","0","1","null","null","arrowup","[0.675,0.325,0.15,0.85]","","",""
"sailing-trial","371","1456502","0.0-11.0-336.0","","","","false","","","","","","","","","","306.29999999701977","","3674.39999999851","","1","0","arrowleft","0","arrowright","[0.675,0.325,0.15,0.85]","","",""
"sailing-trial","372","1459568","0.0-11.0-337.0","","","","false","","","","","","","","","","null","","51.399999998509884","","0","0","null","null","arrowup","[0.675,0.325,0.15,0.85]","","",""
"sailing-trial","373","1463818","0.0-11.0-338.0","","","","false","","","","","","","","","","142.69999999552965","","61.29999999701977","","2","0","arrowright","1","arrowleft","[0.675,0.325,0.15,0.85]","","",""
"sailing-trial","374","1466132","0.0-11.0-339.0","","","","false","","","","","","","","","","null","","1134.8999999985099","","0","0","null","null","arrowup","[0.675,0.325,0.15,0.85]","","",""
"sailing-trial","375","1469083","0.0-11.0-340.0","","","","false","","","","","","","","","","27","","140.79999999701977","","0","1","arrowleft","0","arrowleft","[0.675,0.325,0.15,0.85]","","",""
"sailing-trial","376","1470450","0.0-11.0-341.0","","","","false","","","","","","","","","","null","","101.80000000447035","","2","0","null","null","arrowup","[0.675,0.325,0.15,0.85]","","",""
"sailing-trial","377","1472702","0.0-11.0-342.0","","","","false","","","","","","","","","","76.79999999701977","","96.19999999552965","","2","0","arrowright","1","arrowleft","[0.675,0.325,0.15,0.85]","","",""
"sailing-trial","378","1474830","0.0-11.0-343.0","","","","false","","","","","","","","","","null","","100.89999999850988","","3","1","null","null","arrowup","[0.675,0.325,0.15,0.85]","","",""
"sailing-trial","379","1480515","0.0-11.0-344.0","","","","false","","","","","","","","","","367.5","","1492.1000000014901","","3","1","arrowright","1","arrowright","[0.675,0.325,0.15,0.85]","","",""
"sailing-trial","380","1486082","0.0-11.0-345.0","","","","false","","","","","","","","","","null","","44","","3","1","null","null","arrowup","[0.675,0.325,0.15,0.85]","","",""
"sailing-trial","381","1488966","0.0-11.0-346.0","","","","false","","","","","","","","","","73.39999999850988","","151.60000000149012","","3","1","arrowright","1","arrowright","[0.85,0.15,0.325,0.675]","","",""
"sailing-trial","382","1490508","0.0-11.0-347.0","","","","false","","","","","","","","","","null","","323.70000000298023","","1","0","null","null","arrowup","[0.85,0.15,0.325,0.675]","","",""
"sailing-trial","383","1493532","0.0-11.0-348.0","","","","false","","","","","","","","","","306.19999999552965","","18","","3","1","arrowright","1","arrowright","[0.85,0.15,0.325,0.675]","","",""
"sailing-trial","384","1495464","0.0-11.0-349.0","","","","false","","","","","","","","","","null","","410.5","","0","1","null","null","arrowup","[0.85,0.15,0.325,0.675]","","",""
"sailing-trial","385","1498998","0.0-11.0-350.0","","","","false","","","","","","","","","","16.80000000447035","","572.6000000014901","","3","1","arrowright","1","arrowright","[0.85,0.15,0.325,0.675]","","",""
"sailing-trial","386","1500154","0.0-11.0-351.0","","","","false","","","","","","","","","","null","","2.899999998509884","","1","0","null","null","arrowup","[0.85,0.15,0.325,0.675]","","",""
"sailing-trial","387","1504273","0.0-11.0-352.0","","","","false","","","","","","","","","","81.19999999552965","","1862.2000000029802","","3","0","arrowright","1","arrowright","[0.85,0.15,0.325,0.675]","","",""
"sailing-trial","388","1505568","0.0-11.0-353.0","","","","false","","","","","","","","","","null","","109.80000000447035","","2","0","null","null","arrowup","[0.85,0.15,0.325,0.675]","","",""
"sailing-trial","389","1508713","0.0-11.0-354.0","","","","false","","","","","","","","","","53.69999999552965","","196.70000000298023","","3","1","arrowright","1","arrowright","[0.85,0.15,0.325,0.675]","","",""
"sailing-trial","390","1509839","0.0-11.0-355.0","","","","false","","","","","","","","","","null","","51.600000001490116","","1","0","null","null","arrowup","[0.85,0.15,0.325,0.675]","","",""
"sailing-trial","391","1513815","0.0-11.0-356.0","","","","false","","","","","","","","","","1111.7999999970198","","172.19999999552965","","3","1","arrowright","1","arrowright","[0.85,0.15,0.325,0.675]","","",""
"sailing-trial","392","1516432","0.0-11.0-357.0","","","","false","","","","","","","","","","null","","145.39999999850988","","0","1","null","null","arrowup","[0.85,0.15,0.325,0.675]","","",""
"sailing-trial","393","1519998","0.0-11.0-358.0","","","","false","","","","","","","","","","435.20000000298023","","126.39999999850988","","3","0","arrowright","1","arrowright","[0.85,0.15,0.325,0.675]","","",""
"sailing-trial","394","1521519","0.0-11.0-359.0","","","","false","","","","","","","","","","null","","251.80000000447035","","1","0","null","null","arrowup","[0.85,0.15,0.325,0.675]","","",""
"sailing-trial","395","1524202","0.0-11.0-360.0","","","","false","","","","","","","","","","280.5","","301.70000000298023","","3","0","arrowright","1","arrowright","[0.85,0.15,0.325,0.675]","","",""
"sailing-trial","396","1525789","0.0-11.0-361.0","","","","false","","","","","","","","","","null","","225.89999999850988","","0","0","null","null","arrowup","[0.85,0.15,0.325,0.675]","","",""
"sailing-trial","397","1528997","0.0-11.0-362.0","","","","false","","","","","","","","","","81.89999999850988","","598.6000000014901","","3","1","arrowright","1","arrowright","[0.85,0.15,0.325,0.675]","","",""
"sailing-trial","398","1530715","0.0-11.0-363.0","","","","false","","","","","","","","","","null","","40.19999999552965","","3","1","null","null","arrowup","[0.85,0.15,0.325,0.675]","","",""
"sailing-trial","399","1533697","0.0-11.0-364.0","","","","false","","","","","","","","","","109.5","","22.899999998509884","","3","1","arrowright","1","arrowright","[0.675,0.325,0.15,0.85]","","",""
"sailing-trial","400","1535896","0.0-11.0-365.0","","","","false","","","","","","","","","","null","","175.10000000149012","","0","1","null","null","arrowup","[0.675,0.325,0.15,0.85]","","",""
"sailing-trial","401","1538878","0.0-11.0-366.0","","","","false","","","","","","","","","","81.70000000298023","","148.60000000149012","","3","1","arrowright","1","arrowright","[0.675,0.325,0.15,0.85]","","",""
"sailing-trial","402","1540696","0.0-11.0-367.0","","","","false","","","","","","","","","","null","","76.69999999552965","","0","1","null","null","arrowup","[0.675,0.325,0.15,0.85]","","",""
"sailing-trial","403","1543848","0.0-11.0-368.0","","","","false","","","","","","","","","","275.40000000596046","","145.89999999850988","","0","1","arrowleft","0","arrowleft","[0.675,0.325,0.15,0.85]","","",""
"sailing-trial","404","1545376","0.0-11.0-369.0","","","","false","","","","","","","","","","null","","273.8999999985099","","2","0","null","null","arrowup","[0.675,0.325,0.15,0.85]","","",""
"sailing-trial","405","1550197","0.0-11.0-370.0","","","","false","","","","","","","","","","712.2000000029802","","2014.6000000014901","","0","0","arrowleft","0","arrowleft","[0.675,0.325,0.15,0.85]","","",""
"sailing-trial","406","1553215","0.0-11.0-371.0","","","","false","","","","","","","","","","null","","8.199999995529652","","1","0","null","null","arrowup","[0.675,0.325,0.15,0.85]","","",""
"sailing-trial","407","1558430","0.0-11.0-372.0","","","","false","","","","","","","","","","439","","76.40000000596046","","0","1","arrowleft","0","arrowleft","[0.675,0.325,0.15,0.85]","","",""
"sailing-trial","408","1561948","0.0-11.0-373.0","","","","false","","","","","","","","","","null","","485.8999999985099","","2","0","null","null","arrowup","[0.675,0.325,0.15,0.85]","","",""
"sailing-trial","409","1582459","0.0-11.0-374.0","","","","true","","","","","","","","","","2024","","2461.7999999970198","","3","1","arrowright","1","arrowright","[0.675,0.325,0.15,0.85]","","",""
"sailing-trial","410","1584177","0.0-11.0-375.0","","","","false","","","","","","","","","","null","","18.200000002980232","","1","1","null","null","arrowup","[0.675,0.325,0.15,0.85]","","",""
"sailing-trial","411","1587328","0.0-11.0-376.0","","","","false","","","","","","","","","","151.19999999552965","","66.30000000447035","","0","1","arrowleft","0","arrowleft","[0.675,0.325,0.15,0.85]","","",""
"sailing-trial","412","1588619","0.0-11.0-377.0","","","","false","","","","","","","","","","null","","161.29999999701977","","0","0","null","null","arrowup","[0.675,0.325,0.15,0.85]","","",""
"sailing-trial","413","1591346","0.0-11.0-378.0","","","","false","","","","","","","","","","29.80000000447035","","48","","0","1","arrowleft","0","arrowleft","[0.675,0.325,0.15,0.85]","","",""
"sailing-trial","414","1593079","0.0-11.0-379.0","","","","false","","","","[{""event"":""fullscreenenter"",""trial"":3,""time"":2447},{""event"":""blur"",""trial"":415,""time"":1593926},{""event"":""focus"",""trial"":415,""time"":1598716}]","false","","","","","null","","151.20000000298023","","3","1","null","null","arrowup","[0.675,0.325,0.15,0.85]","","",""
"sailing-trial","415","1600493","0.0-11.0-380.0","","","","false","","","","","","","","","","3.9000000059604645","","4640.19999999553","","0","1","arrowleft","0","arrowleft","[0.85,0.15,0.325,0.675]","","",""
"sailing-trial","416","1602193","0.0-11.0-381.0","","","","false","","","","","","","","","","null","","64.10000000149012","","2","1","null","null","arrowup","[0.85,0.15,0.325,0.675]","","",""
"sailing-trial","417","1605176","0.0-11.0-382.0","","","","false","","","","","","","","","","4.700000002980232","","171.60000000149012","","0","1","arrowleft","0","arrowleft","[0.85,0.15,0.325,0.675]","","",""
"sailing-trial","418","1606622","0.0-11.0-383.0","","","","false","","","","[{""event"":""fullscreenenter"",""trial"":3,""time"":2447},{""event"":""blur"",""trial"":415,""time"":1593926},{""event"":""focus"",""trial"":415,""time"":1598716},{""event"":""blur"",""trial"":419,""time"":1608941}]","false","","","","","null","","244.39999999850988","","1","0","null","null","arrowup","[0.85,0.15,0.325,0.675]","","",""
"sailing-trial","419","1609575","0.0-11.0-384.0","","","","false","","","","[{""event"":""fullscreenenter"",""trial"":3,""time"":2447},{""event"":""blur"",""trial"":415,""time"":1593926},{""event"":""focus"",""trial"":415,""time"":1598716},{""event"":""blur"",""trial"":419,""time"":1608941},{""event"":""focus"",""trial"":420,""time"":1612427}]","false","","","","","152.20000000298023","","177","","0","1","arrowleft","0","arrowleft","[0.85,0.15,0.325,0.675]","","",""
"sailing-trial","420","1614210","0.0-11.0-385.0","","","","false","","","","","","","","","","null","","2862.8000000044703","","2","1","null","null","arrowup","[0.85,0.15,0.325,0.675]","","",""
"sailing-trial","421","1619263","0.0-11.0-386.0","","","","false","","","","","","","","","","180.79999999701977","","548","","0","0","arrowleft","0","arrowleft","[0.85,0.15,0.325,0.675]","","",""
"sailing-trial","422","1621010","0.0-11.0-387.0","","","","false","","","","","","","","","","null","","170.70000000298023","","3","1","null","null","arrowup","[0.85,0.15,0.325,0.675]","","",""
"sailing-trial","423","1623777","0.0-11.0-388.0","","","","false","","","","","","","","","","44.399999998509884","","152.69999999552965","","0","1","arrowleft","0","arrowleft","[0.85,0.15,0.325,0.675]","","",""
"sailing-trial","424","1625827","0.0-11.0-389.0","","","","false","","","","","","","","","","null","","185.89999999850988","","2","1","null","null","arrowup","[0.85,0.15,0.325,0.675]","","",""
"sailing-trial","425","1629608","0.0-11.0-390.0","","","","false","","","","","","","","","","1050.3000000044703","","14.399999998509884","","0","1","arrowleft","0","arrowleft","[0.85,0.15,0.325,0.675]","","",""
"sailing-trial","426","1631460","0.0-11.0-391.0","","","","false","","","","","","","","","","null","","278.29999999701977","","3","1","null","null","arrowup","[0.85,0.15,0.325,0.675]","","",""
"sailing-trial","427","1635793","0.0-11.0-392.0","","","","false","","","","","","","","","","683","","657.2999999970198","","0","1","arrowleft","0","arrowleft","[0.85,0.15,0.325,0.675]","","",""
"sailing-trial","428","1637860","0.0-11.0-393.0","","","","false","","","","","","","","","","null","","171.39999999850988","","0","1","null","null","arrowup","[0.85,0.15,0.325,0.675]","","",""
"sailing-trial","429","1643592","0.0-11.0-394.0","","","","false","","","","","","","","","","197.29999999701977","","2799.10000000149","","0","1","arrowleft","0","arrowleft","[0.85,0.15,0.325,0.675]","","",""
"sailing-trial","430","1645410","0.0-11.0-395.0","","","","false","","","","","","","","","","null","","144","","0","1","null","null","arrowup","[0.85,0.15,0.325,0.675]","","",""
"sailing-trial","431","1649507","0.0-11.0-396.0","","","","false","","","","","","","","","","258.6000000014901","","981.1000000014901","","0","1","arrowleft","0","arrowleft","[0.85,0.15,0.325,0.675]","","",""
"sailing-trial","432","1650724","0.0-11.0-397.0","","","","false","","","","","","","","","","null","","122.79999999701977","","1","0","null","null","arrowup","[0.85,0.15,0.325,0.675]","","",""
"sailing-trial","433","1654208","0.0-11.0-398.0","","","","false","","","","","","","","","","349.69999999552965","","445","","0","1","arrowleft","0","arrowleft","[0.85,0.15,0.325,0.675]","","",""
"sailing-trial","434","1655724","0.0-11.0-399.0","","","","false","","","","","","","","","","null","","398.69999999552965","","3","0","null","null","arrowup","[0.85,0.15,0.325,0.675]","","",""
"instructions","435","1658028","0.0-12.0","","","","","","","","","","2303.60000000149","","","","","","","","","","","","","","","","[{""page_index"":0,""viewing_time"":2303.2999999970198}]"
"survey-debrief","436","1672967","0.0-13.0","","","","","","","","","","14936.70000000298","","","","","","","","","","","","","","{""difficulty"":""5"",""fun"":""2"",""clarity"":""4"",""strategy"":""pick yellow and red"",""feedback"":""""}","",""
