"trial_type","trial_index","time_elapsed","internal_node_id","value","metadata","success","timeout","failed_images","failed_audio","failed_video","browser_interaction","low_quality","rt","stimulus","response","button_pressed","island_rt","island_response","boat_rt","boat_response","boat","reward","island_key","island","boat_key","reward_probabilities","responses","num_errors","view_history"
"pavlovia","0","3","0.0-0.0","","","","","","","","","","","","","","","","","","","","","","","","","",""
"call-function","1","3","0.0-1.0","","{""task_version"":""sailing_part1_v1"",""task_condition"":""good"",""boats"":[""D"",""C"",""B"",""A""],""boats_demo"":[""F"",""G"",""H"",""E""],""islands"":[""A"",""B""],""subject_id"":""15170"",""age"":""19"",""gender"":""Female""}","","","","","","","","","","","","","","","","","","","","","","","",""
"preload","2","2506","0.0-2.0","","","true","false","[]","[]","[]","[{""event"":""fullscreenenter"",""trial"":3,""time"":4445}]","false","","","","","","","","","","","","","","","","",""
"fullscreen","3","5429","0.0-3.0","","","true","","","","","","","","","","","","","","","","","","","","","","",""
"audio-keyboard-response","4","6556","0.0-4.0-0.0","","","","","","","","","","1034.6666666666665","audio/beep_loop.wav"," ","","","","","","","","","","","","","",""
"audio-test","5","15709","0.0-4.0-1.0","","","","","","","","","","null","audio/turtle.mp3","","3","","","","","","","","","","","","",""
"audio-test","6","19358","0.0-4.0-2.0","","","","","","","","","","null","audio/shark.mp3","","2","","","","","","","","","","","","",""
"sailing-instructions","7","48283","0.0-5.0-0.0-0.0","","","","","","","","","","","","","","null","null","null","null","null","null","","","","","","",""
"sailing-trial","8","50584","0.0-5.0-0.0-1.0-0.0","","","","false","","","","","","","","","","1195.0999999046326","","null","","null","null","arrowleft","0","null","null","","",""
"sailing-trial","9","52498","0.0-5.0-0.0-1.0-1.0","","","","false","","","","","","","","","","809.5999999046326","","null","","null","null","arrowright","1","null","null","","",""
"sailing-trial","10","55364","0.0-5.0-0.0-1.0-2.0","","","","false","","","","","","","","","","1756.1999998092651","","null","","null","null","arrowleft","0","null","null","","",""
"sailing-instructions","11","99570","0.0-5.0-0.0-2.0","","","","","","","","","","","","","","null","null","null","null","0","null","","","","","","",""
"sailing-trial","12","103466","0.0-5.0-0.0-3.0-0.0","","","","false","","","","","","","","","","null","","1006.3000001907349","","2","1","null","null","arrowleft","[1,1,1,1]","","",""
"sailing-trial","13","106648","0.0-5.0-0.0-3.0-1.0","","","","false","","","","","","","","","","null","","602.1000001430511","","3","1","null","null","arrowright","[1,1,1,1]","","",""
"sailing-trial","14","109940","0.0-5.0-0.0-3.0-2.0","","","","false","","","","","","","","","","null","","763","","2","0","null","null","arrowleft","[0,0,0,0]","","",""
"sailing-instructions","15","117255","0.0-5.0-0.0-4.0","","","","","","","","","","","","","","null","null","null","null","null","null","","","","","","",""
"sailing-comprehension","16","129223","0.0-5.0-0.0-5.0","","","","","","","","","","9351.600000143051","","","","","","","","","","","","","","[""true"",""true"",""false"",""true""]","0",""
"sailing-instructions","17","192935","0.0-6.0-0.0-0.0","","","","","","","","","","","","","","null","null","null","null","null","null","","","","","","",""
"sailing-comprehension","18","200146","0.0-6.0-0.0-1.0","","","","","","","","","","5324","","","","","","","","","","","","","","[""true"",""false"",""true""]","0",""
"sailing-instructions","19","213567","0.0-7.0-0.0-0.0","","","","","","","","","","","","","","null","null","null","null","null","null","","","","","","",""
"sailing-trial","20","217722","0.0-7.0-0.0-1.0-0.0","","","","false","","","","","","","","","","null","","2037.7999999523163","","0","0","null","null","arrowup","[0.2,0.8,0.2,0.8]","","",""
"sailing-trial","21","219964","0.0-7.0-0.0-1.0-1.0","","","","false","","","","","","","","","","null","","734","","1","0","null","null","arrowup","[0.2,0.8,0.2,0.8]","","",""
"sailing-trial","22","222496","0.0-7.0-0.0-1.0-2.0","","","","false","","","","","","","","","","null","","841","","2","0","null","null","arrowup","[0.2,0.8,0.2,0.8]","","",""
"sailing-trial","23","225498","0.0-7.0-0.0-1.0-3.0","","","","false","","","","","","","","","","null","","1039","","3","1","null","null","arrowup","[0.2,0.8,0.2,0.8]","","",""
"sailing-comprehension","24","230877","0.0-7.0-0.0-2.0","","","","","","","","","","4361","","","","","","","","","","","","","","[""false""]","0",""
"sailing-instructions","25","241288","0.0-8.0-0.0-0.0","","","","","","","","","","","","","","null","null","null","null","null","null","","","","","","",""
"sailing-comprehension","26","244501","0.0-8.0-0.0-1.0","","","","","","","","","","2254.2999999523163","","","","","","","","","","","","","","[""true""]","0",""
"sailing-instructions","27","269243","0.0-9.0-0.0-0.0","","","","","","","","","","","","","","null","null","null","null","null","null","","","","","","",""
"sailing-trial","28","274690","0.0-9.0-0.0-1.0-0.0","","","","false","","","","","","","","","","972.4000000953674","","1240.4000000953674","","0","0","arrowleft","0","arrowleft","[0.2,0.8,0.2,0.8]","","",""
"sailing-trial","29","279199","0.0-9.0-0.0-1.0-1.0","","","","false","","","","","","","","","","1173.2999999523163","","150.79999995231628","","1","1","arrowleft","0","arrowright","[0.2,0.8,0.2,0.8]","","",""
"sailing-trial","30","282280","0.0-9.0-0.0-1.0-2.0","","","","false","","","","","","","","","","null","","1354.5999999046326","","0","0","null","null","arrowup","[0.2,0.8,0.2,0.8]","","",""
"sailing-trial","31","285970","0.0-9.0-0.0-1.0-3.0","","","","false","","","","","","","","","","626.5","","370.60000014305115","","2","0","arrowright","1","arrowleft","[0.2,0.8,0.2,0.8]","","",""
"sailing-trial","32","288540","0.0-9.0-0.0-1.0-4.0","","","","false","","","","","","","","","","null","","886.3999998569489","","3","0","null","null","arrowup","[0.2,0.8,0.2,0.8]","","",""
"sailing-trial","33","292294","0.0-9.0-0.0-1.0-5.0","","","","false","","","","","","","","","","680.5","","468.7000000476837","","1","0","arrowleft","0","arrowright","[0.2,0.8,0.2,0.8]","","",""
"sailing-instructions","34","317210","0.0-10.0","","","","","","","","","","","","","","null","null","null","null","null","null","","","","","","",""
"sailing-trial","35","321358","0.0-11.0-0.0","","","","false","","","","","","","","","","669.2999999523163","","227.29999995231628","","0","0","arrowleft","0","arrowleft","[0.325,0.675,0.15,0.85]","","",""
"sailing-trial","36","324698","0.0-11.0-1.0","","","","false","","","","","","","","","","null","","1199","","3","1","null","null","arrowup","[0.325,0.675,0.15,0.85]","","",""
"sailing-trial","37","328745","0.0-11.0-2.0","","","","false","","","","","","","","","","744.5999999046326","","346.2999999523163","","1","0","arrowleft","0","arrowright","[0.325,0.675,0.15,0.85]","","",""
"sailing-trial","38","331398","0.0-11.0-3.0","","","","false","","","","","","","","","","null","","680.4000000953674","","1","1","null","null","arrowup","[0.325,0.675,0.15,0.85]","","",""
"sailing-trial","39","335131","0.0-11.0-4.0","","","","false","","","","","","","","","","600.5999999046326","","21.100000143051147","","3","1","arrowright","1","arrowright","[0.325,0.675,0.15,0.85]","","",""
"sailing-trial","40","337797","0.0-11.0-5.0","","","","false","","","","","","","","","","null","","707.4000000953674","","1","1","null","null","arrowup","[0.325,0.675,0.15,0.85]","","",""
"sailing-trial","41","341498","0.0-11.0-6.0","","","","false","","","","","","","","","","676.5999999046326","","43.200000047683716","","2","1","arrowright","1","arrowleft","[0.325,0.675,0.15,0.85]","","",""
"sailing-trial","42","343986","0.0-11.0-7.0","","","","false","","","","","","","","","","null","","683.9000000953674","","0","0","null","null","arrowup","[0.325,0.675,0.15,0.85]","","",""
"sailing-trial","43","347897","0.0-11.0-8.0","","","","false","","","","","","","","","","541.5","","261.5","","1","1","arrowleft","0","arrowright","[0.325,0.675,0.15,0.85]","","",""
"sailing-trial","44","350729","0.0-11.0-9.0","","","","false","","","","","","","","","","null","","631.2000000476837","","1","0","null","null","arrowup","[0.325,0.675,0.15,0.85]","","",""
"sailing-trial","45","355064","0.0-11.0-10.0","","","","false","","","","","","","","","","568","","580.0999999046326","","3","1","arrowright","1","arrowright","[0.325,0.675,0.15,0.85]","","",""
"sailing-trial","46","357998","0.0-11.0-11.0","","","","false","","","","","","","","","","null","","975.7000000476837","","0","1","null","null","arrowup","[0.325,0.675,0.15,0.85]","","",""
"sailing-trial","47","362022","0.0-11.0-12.0","","","","false","","","","","","","","","","714.2000000476837","","362.39999985694885","","0","0","arrowleft","0","arrowleft","[0.325,0.675,0.15,0.85]","","",""
"sailing-trial","48","364167","0.0-11.0-13.0","","","","false","","","","","","","","","","null","","716.3999998569489","","0","0","null","null","arrowup","[0.325,0.675,0.15,0.85]","","",""
"sailing-trial","49","367162","0.0-11.0-14.0","","","","false","","","","","","","","","","300.60000014305115","","246.10000014305115","","2","0","arrowright","1","arrowleft","[0.325,0.675,0.15,0.85]","","",""
"sailing-trial","50","369815","0.0-11.0-15.0","","","","false","","","","","","","","","","null","","610.8999998569489","","1","1","null","null","arrowup","[0.325,0.675,0.15,0.85]","","",""
"sailing-trial","51","373231","0.0-11.0-16.0","","","","false","","","","","","","","","","515.0999999046326","","170.89999985694885","","1","1","arrowleft","0","arrowright","[0.325,0.675,0.15,0.85]","","",""
"sailing-trial","52","375320","0.0-11.0-17.0","","","","false","","","","","","","","","","null","","638.5999999046326","","2","0","null","null","arrowup","[0.325,0.675,0.15,0.85]","","",""
"sailing-trial","53","379126","0.0-11.0-18.0","","","","false","","","","","","","","","","1009.2000000476837","","38.40000009536743","","3","0","arrowright","1","arrowright","[0.85,0.15,0.675,0.325]","","",""
"sailing-trial","54","381615","0.0-11.0-19.0","","","","false","","","","","","","","","","null","","618.0999999046326","","0","1","null","null","arrowup","[0.85,0.15,0.675,0.325]","","",""
"sailing-trial","55","385514","0.0-11.0-20.0","","","","false","","","","","","","","","","522.9000000953674","","265.60000014305115","","1","1","arrowleft","0","arrowright","[0.85,0.15,0.675,0.325]","","",""
"sailing-trial","56","387637","0.0-11.0-21.0","","","","false","","","","","","","","","","null","","628.8000001907349","","1","0","null","null","arrowup","[0.85,0.15,0.675,0.325]","","",""
"sailing-trial","57","392397","0.0-11.0-22.0","","","","false","","","","","","","","","","1108","","49.19999980926514","","0","1","arrowleft","0","arrowleft","[0.85,0.15,0.675,0.325]","","",""
"sailing-trial","58","394469","0.0-11.0-23.0","","","","false","","","","","","","","","","null","","738","","0","0","null","null","arrowup","[0.85,0.15,0.675,0.325]","","",""
"sailing-trial","59","398132","0.0-11.0-24.0","","","","false","","","","","","","","","","465.09999990463257","","440.7000000476837","","3","1","arrowright","1","arrowright","[0.85,0.15,0.675,0.325]","","",""
"sailing-trial","60","400649","0.0-11.0-25.0","","","","false","","","","","","","","","","null","","679.6000001430511","","3","1","null","null","arrowup","[0.85,0.15,0.675,0.325]","","",""
"sailing-trial","61","404981","0.0-11.0-26.0","","","","false","","","","","","","","","","546.9000000953674","","568.9000000953674","","2","1","arrowright","1","arrowleft","[0.85,0.15,0.675,0.325]","","",""
"sailing-trial","62","407160","0.0-11.0-27.0","","","","false","","","","","","","","","","null","","628.7999999523163","","1","0","null","null","arrowup","[0.85,0.15,0.675,0.325]","","",""
"sailing-trial","63","410965","0.0-11.0-28.0","","","","false","","","","","","","","","","524.4000000953674","","148.79999995231628","","3","1","arrowright","1","arrowright","[0.85,0.15,0.675,0.325]","","",""
"sailing-trial","64","413176","0.0-11.0-29.0","","","","false","","","","","","","","","","null","","702.2000000476837","","1","0","null","null","arrowup","[0.85,0.15,0.675,0.325]","","",""
"sailing-trial","65","417056","0.0-11.0-30.0","","","","false","","","","","","","","","","1072.1999998092651","","239.70000004768372","","3","0","arrowright","1","arrowright","[0.85,0.15,0.675,0.325]","","",""
"sailing-trial","66","419230","0.0-11.0-31.0","","","","false","","","","","","","","","","null","","652.6000001430511","","3","0","null","null","arrowup","[0.85,0.15,0.675,0.325]","","",""
"sailing-trial","67","423115","0.0-11.0-32.0","","","","false","","","","","","","","","","560.4000000953674","","275.2999999523163","","2","1","arrowright","1","arrowleft","[0.85,0.15,0.675,0.325]","","",""
"sailing-trial","68","426515","0.0-11.0-33.0","","","","false","","","","","","","","","","null","","829.7000000476837","","1","1","null","null","arrowup","[0.85,0.15,0.675,0.325]","","",""
"sailing-trial","69","430086","0.0-11.0-34.0","","","","false","","","","","","","","","","615.2000000476837","","322.89999985694885","","1","0","arrowleft","0","arrowright","[0.85,0.15,0.675,0.325]","","",""
"sailing-trial","70","432300","0.0-11.0-35.0","","","","false","","","","","","","","","","null","","839.1000001430511","","2","0","null","null","arrowup","[0.85,0.15,0.675,0.325]","","",""
"sailing-trial","71","436047","0.0-11.0-36.0","","","","false","","","","","","","","","","569.5999999046326","","303.09999990463257","","0","1","arrowleft","0","arrowleft","[0.675,0.325,0.85,0.15]","","",""
"sailing-trial","72","438465","0.0-11.0-37.0","","","","false","","","","","","","","","","null","","604.2000000476837","","3","1","null","null","arrowup","[0.675,0.325,0.85,0.15]","","",""
"sailing-trial","73","442581","0.0-11.0-38.0","","","","false","","","","","","","","","","599.9000000953674","","295.2000000476837","","0","1","arrowleft","0","arrowleft","[0.675,0.325,0.85,0.15]","","",""
"sailing-trial","74","444879","0.0-11.0-39.0","","","","false","","","","","","","","","","null","","713.2000000476837","","1","0","null","null","arrowup","[0.675,0.325,0.85,0.15]","","",""
"sailing-trial","75","448186","0.0-11.0-40.0","","","","false","","","","","","","","","","471.7999999523163","","241","","3","0","arrowright","1","arrowright","[0.675,0.325,0.85,0.15]","","",""
"sailing-trial","76","450865","0.0-11.0-41.0","","","","false","","","","","","","","","","null","","813.4000000953674","","2","1","null","null","arrowup","[0.675,0.325,0.85,0.15]","","",""
"sailing-trial","77","454831","0.0-11.0-42.0","","","","false","","","","","","","","","","398","","500.2999999523163","","2","1","arrowright","1","arrowleft","[0.675,0.325,0.85,0.15]","","",""
"sailing-trial","78","457181","0.0-11.0-43.0","","","","false","","","","","","","","","","null","","553.1000001430511","","0","1","null","null","arrowup","[0.675,0.325,0.85,0.15]","","",""
"sailing-trial","79","460730","0.0-11.0-44.0","","","","false","","","","","","","","","","431.90000009536743","","36.90000009536743","","0","1","arrowleft","0","arrowleft","[0.675,0.325,0.85,0.15]","","",""
"sailing-trial","80","463867","0.0-11.0-45.0","","","","false","","","","","","","","","","null","","1025.7999999523163","","3","0","null","null","arrowup","[0.675,0.325,0.85,0.15]","","",""
"sailing-trial","81","467947","0.0-11.0-46.0","","","","false","","","","","","","","","","574.8999998569489","","562.7999999523163","","0","1","arrowleft","0","arrowleft","[0.675,0.325,0.85,0.15]","","",""
"sailing-trial","82","470074","0.0-11.0-47.0","","","","false","","","","","","","","","","null","","749","","3","0","null","null","arrowup","[0.675,0.325,0.85,0.15]","","",""
"sailing-trial","83","473830","0.0-11.0-48.0","","","","false","","","","","","","","","","554.2000000476837","","334.10000014305115","","1","1","arrowleft","0","arrowright","[0.675,0.325,0.85,0.15]","","",""
"sailing-trial","84","478298","0.0-11.0-49.0","","","","false","","","","","","","","","","null","","661.2999999523163","","3","1","null","null","arrowup","[0.675,0.325,0.85,0.15]","","",""
"sailing-trial","85","483094","0.0-11.0-50.0","","","","false","","","","","","","","","","948.5","","335","","3","0","arrowright","1","arrowright","[0.675,0.325,0.85,0.15]","","",""
"sailing-trial","86","486015","0.0-11.0-51.0","","","","false","","","","","","","","","","null","","1091","","0","1","null","null","arrowup","[0.675,0.325,0.85,0.15]","","",""
"sailing-trial","87","489256","0.0-11.0-52.0","","","","false","","","","","","","","","","110.30000019073486","","113.5","","0","0","arrowleft","0","arrowleft","[0.675,0.325,0.85,0.15]","","",""
"sailing-trial","88","491337","0.0-11.0-53.0","","","","false","","","","","","","","","","null","","760.2999999523163","","2","0","null","null","arrowup","[0.675,0.325,0.85,0.15]","","",""
"sailing-trial","89","495213","0.0-11.0-54.0","","","","false","","","","","","","","","","1149","","218.79999995231628","","1","0","arrowleft","0","arrowright","[0.675,0.325,0.85,0.15]","","",""
"sailing-trial","90","497566","0.0-11.0-55.0","","","","false","","","","","","","","","","null","","530.7999999523163","","2","1","null","null","arrowup","[0.675,0.325,0.85,0.15]","","",""
"sailing-trial","91","500751","0.0-11.0-56.0","","","","false","","","","","","","","","","149.70000004768372","","513.5999999046326","","2","0","arrowright","1","arrowleft","[0.325,0.675,0.15,0.85]","","",""
"sailing-trial","92","504240","0.0-11.0-57.0","","","","false","","","","","","","","","","null","","1901.7000000476837","","0","0","null","null","arrowup","[0.325,0.675,0.15,0.85]","","",""
"sailing-trial","93","507647","0.0-11.0-58.0","","","","false","","","","","","","","","","232.79999995231628","","117.29999995231628","","3","1","arrowright","1","arrowright","[0.325,0.675,0.15,0.85]","","",""
"sailing-trial","94","510681","0.0-11.0-59.0","","","","false","","","","","","","","","","null","","1156","","1","1","null","null","arrowup","[0.325,0.675,0.15,0.85]","","",""
"sailing-trial","95","514281","0.0-11.0-60.0","","","","false","","","","","","","","","","587.9000000953674","","41.299999952316284","","1","1","arrowleft","0","arrowright","[0.325,0.675,0.15,0.85]","","",""
"sailing-trial","96","516293","0.0-11.0-61.0","","","","false","","","","","","","","","","null","","648.9000000953674","","0","0","null","null","arrowup","[0.325,0.675,0.15,0.85]","","",""
"sailing-trial","97","519798","0.0-11.0-62.0","","","","false","","","","","","","","","","460.09999990463257","","252.09999990463257","","3","1","arrowright","1","arrowright","[0.325,0.675,0.15,0.85]","","",""
"sailing-trial","98","521814","0.0-11.0-63.0","","","","false","","","","","","","","","","null","","643.1000001430511","","2","0","null","null","arrowup","[0.325,0.675,0.15,0.85]","","",""
"sailing-trial","99","525113","0.0-11.0-64.0","","","","false","","","","","","","","","","265.7999999523163","","34.799999952316284","","3","1","arrowright","1","arrowright","[0.325,0.675,0.15,0.85]","","",""
"sailing-trial","100","527565","0.0-11.0-65.0","","","","false","","","","","","","","","","null","","31.200000047683716","","1","1","null","null","arrowup","[0.325,0.675,0.15,0.85]","","",""
"sailing-trial","101","530442","0.0-11.0-66.0","","","","false","","","","","","","","","","384.89999985694885","","183.10000014305115","","1","0","arrowleft","0","arrowright","[0.325,0.675,0.15,0.85]","","",""
"sailing-trial","102","532615","0.0-11.0-67.0","","","","false","","","","","","","","","","null","","518.7999999523163","","2","1","null","null","arrowup","[0.325,0.675,0.15,0.85]","","",""
"sailing-trial","103","535830","0.0-11.0-68.0","","","","false","","","","","","","","","","18.300000190734863","","154.40000009536743","","2","1","arrowright","1","arrowleft","[0.325,0.675,0.15,0.85]","","",""
"sailing-trial","104","537830","0.0-11.0-69.0","","","","false","","","","","","","","","","null","","61","","3","1","null","null","arrowup","[0.325,0.675,0.15,0.85]","","",""
"sailing-trial","105","540559","0.0-11.0-70.0","","","","false","","","","","","","","","","422.10000014305115","","39.10000014305115","","3","0","arrowright","1","arrowright","[0.325,0.675,0.15,0.85]","","",""
"sailing-trial","106","542825","0.0-11.0-71.0","","","","false","","","","","","","","","","null","","805.7000000476837","","0","0","null","null","arrowup","[0.325,0.675,0.15,0.85]","","",""
"sailing-trial","107","545636","0.0-11.0-72.0","","","","false","","","","","","","","","","229.09999990463257","","169","","2","0","arrowright","1","arrowleft","[0.325,0.675,0.15,0.85]","","",""
"sailing-trial","108","547349","0.0-11.0-73.0","","","","false","","","","","","","","","","null","","462.7999999523163","","2","0","null","null","arrowup","[0.325,0.675,0.15,0.85]","","",""
"sailing-trial","109","551214","0.0-11.0-74.0","","","","false","","","","","","","","","","598.2999999523163","","416.09999990463257","","1","1","arrowleft","0","arrowright","[0.15,0.85,0.325,0.675]","","",""
"sailing-trial","110","552807","0.0-11.0-75.0","","","","false","","","","","","","","","","null","","164.79999995231628","","2","0","null","null","arrowup","[0.15,0.85,0.325,0.675]","","",""
"sailing-trial","111","556515","0.0-11.0-76.0","","","","false","","","","","","","","","","373.7999999523163","","451.40000009536743","","1","1","arrowleft","0","arrowright","[0.15,0.85,0.325,0.675]","","",""
"sailing-trial","112","559448","0.0-11.0-77.0","","","","false","","","","","","","","","","null","","392.10000014305115","","3","0","null","null","arrowup","[0.15,0.85,0.325,0.675]","","",""
"sailing-trial","113","563547","0.0-11.0-78.0","","","","false","","","","","","","","","","696.2000000476837","","452.09999990463257","","1","1","arrowleft","0","arrowright","[0.15,0.85,0.325,0.675]","","",""
"sailing-trial","114","565255","0.0-11.0-79.0","","","","false","","","","","","","","","","null","","252.70000004768372","","2","0","null","null","arrowup","[0.15,0.85,0.325,0.675]","","",""
"sailing-trial","115","568464","0.0-11.0-80.0","","","","false","","","","","","","","","","477.5","","28.40000009536743","","1","1","arrowleft","0","arrowright","[0.15,0.85,0.325,0.675]","","",""
"sailing-trial","116","570767","0.0-11.0-81.0","","","","false","","","","","","","","","","null","","1163","","0","0","null","null","arrowup","[0.15,0.85,0.325,0.675]","","",""
"sailing-trial","117","574231","0.0-11.0-82.0","","","","false","","","","","","","","","","274.7000000476837","","246.40000009536743","","1","1","arrowleft","0","arrowright","[0.15,0.85,0.325,0.675]","","",""
"sailing-trial","118","576431","0.0-11.0-83.0","","","","false","","","","","","","","","","null","","233.29999995231628","","0","1","null","null","arrowup","[0.15,0.85,0.325,0.675]","","",""
"sailing-trial","119","579305","0.0-11.0-84.0","","","","false","","","","","","","","","","196.40000009536743","","357.2000000476837","","0","0","arrowleft","0","arrowleft","[0.15,0.85,0.325,0.675]","","",""
"sailing-trial","120","581598","0.0-11.0-85.0","","","","false","","","","","","","","","","null","","990.8999998569489","","2","0","null","null","arrowup","[0.15,0.85,0.325,0.675]","","",""
"sailing-trial","121","588931","0.0-11.0-86.0","","","","false","","","","","","","","","","3822.2000000476837","","493.60000014305115","","1","1","arrowleft","0","arrowright","[0.15,0.85,0.325,0.675]","","",""
"sailing-trial","122","590543","0.0-11.0-87.0","","","","false","","","","","","","","","","null","","491.5","","0","0","null","null","arrowup","[0.15,0.85,0.325,0.675]","","",""
"sailing-trial","123","593589","0.0-11.0-88.0","","","","false","","","","","","","","","","520.8999998569489","","381.10000014305115","","1","0","arrowleft","0","arrowright","[0.15,0.85,0.325,0.675]","","",""
"sailing-trial","124","595831","0.0-11.0-89.0","","","","false","","","","","","","","","","null","","1058.2999999523163","","2","0","null","null","arrowup","[0.15,0.85,0.325,0.675]","","",""
"sailing-trial","125","600247","0.0-11.0-90.0","","","","false","","","","","","","","","","549.7999999523163","","175.79999995231628","","3","1","arrowright","1","arrowright","[0.15,0.85,0.325,0.675]","","",""
"sailing-trial","126","603781","0.0-11.0-91.0","","","","false","","","","","","","","","","null","","110.79999995231628","","1","1","null","null","arrowup","[0.15,0.85,0.325,0.675]","","",""
"sailing-trial","127","607465","0.0-11.0-92.0","","","","false","","","","","","","","","","530.2999999523163","","231.09999990463257","","1","1","arrowleft","0","arrowright","[0.325,0.675,0.15,0.85]","","",""
"sailing-trial","128","608725","0.0-11.0-93.0","","","","false","","","","","","","","","","null","","114.29999995231628","","1","0","null","null","arrowup","[0.325,0.675,0.15,0.85]","","",""
"sailing-trial","129","612630","0.0-11.0-94.0","","","","false","","","","","","","","","","592.5","","296.7000000476837","","3","1","arrowright","1","arrowright","[0.325,0.675,0.15,0.85]","","",""
"sailing-trial","130","615113","0.0-11.0-95.0","","","","false","","","","","","","","","","null","","906.8999998569489","","0","1","null","null","arrowup","[0.325,0.675,0.15,0.85]","","",""
"sailing-trial","131","617868","0.0-11.0-96.0","","","","false","","","","","","","","","","590.2000000476837","","5.799999952316284","","0","0","arrowleft","0","arrowleft","[0.325,0.675,0.15,0.85]","","",""
"sailing-trial","132","620715","0.0-11.0-97.0","","","","false","","","","","","","","","","null","","1028.6000001430511","","1","1","null","null","arrowup","[0.325,0.675,0.15,0.85]","","",""
"sailing-trial","133","623995","0.0-11.0-98.0","","","","false","","","","","","","","","","491","","490.90000009536743","","1","0","arrowleft","0","arrowright","[0.325,0.675,0.15,0.85]","","",""
"sailing-trial","134","626864","0.0-11.0-99.0","","","","false","","","","","","","","","","null","","787","","2","1","null","null","arrowup","[0.325,0.675,0.15,0.85]","","",""
"sailing-trial","135","630381","0.0-11.0-100.0","","","","false","","","","","","","","","","472.89999985694885","","251.79999995231628","","2","1","arrowright","1","arrowleft","[0.325,0.675,0.15,0.85]","","",""
"sailing-trial","136","633064","0.0-11.0-101.0","","","","false","","","","","","","","","","null","","962.0999999046326","","1","1","null","null","arrowup","[0.325,0.675,0.15,0.85]","","",""
"sailing-trial","137","636013","0.0-11.0-102.0","","","","false","","","","","","","","","","534.7999999523163","","110","","2","0","arrowright","1","arrowleft","[0.325,0.675,0.15,0.85]","","",""
"sailing-trial","138","638542","0.0-11.0-103.0","","","","false","","","","","","","","","","null","","777.3999998569489","","2","0","null","null","arrowup","[0.325,0.675,0.15,0.85]","","",""
"sailing-trial","139","641948","0.0-11.0-104.0","","","","false","","","","","","","","","","215.29999995231628","","118.40000009536743","","1","1","arrowleft","0","arrowright","[0.325,0.675,0.15,0.85]","","",""
"sailing-trial","140","645413","0.0-11.0-105.0","","","","false","","","","","","","","","","null","","2176.2999999523163","","2","0","null","null","arrowup","[0.325,0.675,0.15,0.85]","","",""
"sailing-trial","141","649286","0.0-11.0-106.0","","","","false","","","","","","","","","","505.09999990463257","","509.90000009536743","","0","0","arrowleft","0","arrowleft","[0.325,0.675,0.15,0.85]","","",""
"sailing-trial","142","652148","0.0-11.0-107.0","","","","false","","","","","","","","","","null","","997.2999999523163","","3","1","null","null","arrowup","[0.325,0.675,0.15,0.85]","","",""
"sailing-trial","143","655963","0.0-11.0-108.0","","","","false","","","","","","","","","","763.6000001430511","","242.5","","3","1","arrowright","1","arrowright","[0.15,0.85,0.325,0.675]","","",""
"sailing-trial","144","658615","0.0-11.0-109.0","","","","false","","","","","","","","","","null","","618.9000000953674","","3","1","null","null","arrowup","[0.15,0.85,0.325,0.675]","","",""
"sailing-trial","145","662748","0.0-11.0-110.0","","","","false","","","","","","","","","","652.1000001430511","","279.60000014305115","","3","1","arrowright","1","arrowright","[0.15,0.85,0.325,0.675]","","",""
"sailing-trial","146","665364","0.0-11.0-111.0","","","","false","","","","","","","","","","null","","666.9000000953674","","1","1","null","null","arrowup","[0.15,0.85,0.325,0.675]","","",""
"sailing-trial","147","669564","0.0-11.0-112.0","","","","false","","","","","","","","","","758.5999999046326","","186","","1","1","arrowleft","0","arrowright","[0.15,0.85,0.325,0.675]","","",""
"sailing-trial","148","671781","0.0-11.0-113.0","","","","false","","","","","","","","","","null","","627.3999998569489","","3","1","null","null","arrowup","[0.15,0.85,0.325,0.675]","","",""
"sailing-trial","149","675181","0.0-11.0-114.0","","","","false","","","","","","","","","","422.09999990463257","","99.5","","3","1","arrowright","1","arrowright","[0.15,0.85,0.325,0.675]","","",""
"sailing-trial","150","677698","0.0-11.0-115.0","","","","false","","","","","","","","","","null","","776.2000000476837","","1","1","null","null","arrowup","[0.15,0.85,0.325,0.675]","","",""
"sailing-trial","151","681938","0.0-11.0-116.0","","","","false","","","","","","","","","","531.1000001430511","","336.5","","3","0","arrowright","1","arrowright","[0.15,0.85,0.325,0.675]","","",""
"sailing-trial","152","692281","0.0-11.0-117.0","","","","false","","","","","","","","","","null","","428.10000014305115","","3","1","null","null","arrowup","[0.15,0.85,0.325,0.675]","","",""
"sailing-trial","153","695462","0.0-11.0-118.0","","","","false","","","","","","","","","","677.5","","362.09999990463257","","1","0","arrowleft","0","arrowright","[0.15,0.85,0.325,0.675]","","",""
"sailing-trial","154","697653","0.0-11.0-119.0","","","","false","","","","","","","","","","null","","968.8999998569489","","0","0","null","null","arrowup","[0.15,0.85,0.325,0.675]","","",""
"sailing-trial","155","700898","0.0-11.0-120.0","","","","false","","","","","","","","","","442.09999990463257","","145","","3","1","arrowright","1","arrowright","[0.15,0.85,0.325,0.675]","","",""
"sailing-trial","156","703280","0.0-11.0-121.0","","","","false","","","","","","","","","","null","","654.5","","3","1","null","null","arrowup","[0.15,0.85,0.325,0.675]","","",""
"sailing-trial","157","706881","0.0-11.0-122.0","","","","false","","","","","","","","","","566.5","","205.5","","3","1","arrowright","1","arrowright","[0.15,0.85,0.325,0.675]","","",""
"sailing-trial","158","708262","0.0-11.0-123.0","","","","false","","","","","","","","","","null","","224.5","","2","0","null","null","arrowup","[0.15,0.85,0.325,0.675]","","",""
"sailing-trial","159","711697","0.0-11.0-124.0","","","","false","","","","","","","","","","292.7999999523163","","484.09999990463257","","3","1","arrowright","1","arrowright","[0.85,0.15,0.675,0.325]","","",""
"sailing-trial","160","713624","0.0-11.0-125.0","","","","false","","","","","","","","","","null","","640.8000001907349","","1","0","null","null","arrowup","[0.85,0.15,0.675,0.325]","","",""
"sailing-trial","161","716911","0.0-11.0-126.0","","","","false","","","","","","","","","","761.7999999523163","","352.7000000476837","","3","0","arrowright","1","arrowright","[0.85,0.15,0.675,0.325]","","",""
"sailing-trial","162","719158","0.0-11.0-127.0","","","","false","","","","","","","","","","null","","850.9000000953674","","3","0","null","null","arrowup","[0.85,0.15,0.675,0.325]","","",""
"sailing-trial","163","722363","0.0-11.0-128.0","","","","false","","","","","","","","","","400.19999980926514","","116.20000004768372","","0","1","arrowleft","0","arrowleft","[0.85,0.15,0.675,0.325]","","",""
"sailing-trial","164","724473","0.0-11.0-129.0","","","","false","","","","","","","","","","null","","675.7999999523163","","0","0","null","null","arrowup","[0.85,0.15,0.675,0.325]","","",""
"sailing-trial","165","728245","0.0-11.0-130.0","","","","false","","","","","","","","","","774.2999999523163","","413","","1","0","arrowleft","0","arrowright","[0.85,0.15,0.675,0.325]","","",""
"sailing-trial","166","730763","0.0-11.0-131.0","","","","false","","","","","","","","","","null","","648.7999999523163","","0","1","null","null","arrowup","[0.85,0.15,0.675,0.325]","","",""
"sailing-trial","167","734448","0.0-11.0-132.0","","","","false","","","","","","","","","","368.5","","298.30000019073486","","0","1","arrowleft","0","arrowleft","[0.85,0.15,0.675,0.325]","","",""
"sailing-trial","168","737214","0.0-11.0-133.0","","","","false","","","","","","","","","","null","","924.1000001430511","","1","1","null","null","arrowup","[0.85,0.15,0.675,0.325]","","",""
"sailing-trial","169","740996","0.0-11.0-134.0","","","","false","","","","","","","","","","783.1999998092651","","30.59999990463257","","0","1","arrowleft","0","arrowleft","[0.85,0.15,0.675,0.325]","","",""
"sailing-trial","170","743465","0.0-11.0-135.0","","","","false","","","","","","","","","","null","","314.5","","0","1","null","null","arrowup","[0.85,0.15,0.675,0.325]","","",""
"sailing-trial","171","747397","0.0-11.0-136.0","","","","false","","","","","","","","","","330.59999990463257","","390.7000000476837","","0","1","arrowleft","0","arrowleft","[0.85,0.15,0.675,0.325]","","",""
"sailing-trial","172","750114","0.0-11.0-137.0","","","","false","","","","","","","","","","null","","1071.2999999523163","","1","0","null","null","arrowup","[0.85,0.15,0.675,0.325]","","",""
"sailing-trial","173","754138","0.0-11.0-138.0","","","","false","","","","","","","","","","749.2999999523163","","451.39999985694885","","0","0","arrowleft","0","arrowleft","[0.85,0.15,0.675,0.325]","","",""
"sailing-trial","174","756635","0.0-11.0-139.0","","","","false","","","","","","","","","","null","","1118.6000001430511","","1","0","null","null","arrowup","[0.85,0.15,0.675,0.325]","","",""
"sailing-trial","175","759254","0.0-11.0-140.0","","","","false","","","","","","","","","","225.90000009536743","","11.900000095367432","","3","0","arrowright","1","arrowright","[0.675,0.325,0.85,0.15]","","",""
"sailing-trial","176","761797","0.0-11.0-141.0","","","","false","","","","","","","","","","null","","524.2999999523163","","0","1","null","null","arrowup","[0.675,0.325,0.85,0.15]","","",""
"sailing-trial","177","764928","0.0-11.0-142.0","","","","false","","","","","","","","","","704.9000000953674","","119.40000009536743","","0","0","arrowleft","0","arrowleft","[0.675,0.325,0.85,0.15]","","",""
"sailing-trial","178","767281","0.0-11.0-143.0","","","","false","","","","","","","","","","null","","521.9000000953674","","2","1","null","null","arrowup","[0.675,0.325,0.85,0.15]","","",""
"sailing-trial","179","770964","0.0-11.0-144.0","","","","false","","","","","","","","","","538.7999999523163","","231.40000009536743","","2","1","arrowright","1","arrowleft","[0.675,0.325,0.85,0.15]","","",""
"sailing-trial","180","773296","0.0-11.0-145.0","","","","false","","","","","","","","","","null","","935.6000001430511","","3","0","null","null","arrowup","[0.675,0.325,0.85,0.15]","","",""
"sailing-trial","181","777197","0.0-11.0-146.0","","","","false","","","","","","","","","","508.2999999523163","","354.2000000476837","","2","1","arrowright","1","arrowleft","[0.675,0.325,0.85,0.15]","","",""
"sailing-trial","182","780425","0.0-11.0-147.0","","","","false","","","","","","","","","","null","","767.2000000476837","","2","0","null","null","arrowup","[0.675,0.325,0.85,0.15]","","",""
"sailing-trial","183","783835","0.0-11.0-148.0","","","","false","","","","","","","","","","306.59999990463257","","348.10000014305115","","1","0","arrowleft","0","arrowright","[0.675,0.325,0.85,0.15]","","",""
"sailing-trial","184","785789","0.0-11.0-149.0","","","","false","","","","","","","","","","null","","577.9000000953674","","1","0","null","null","arrowup","[0.675,0.325,0.85,0.15]","","",""
"sailing-trial","185","789447","0.0-11.0-150.0","","","","false","","","","","","","","","","555.2000000476837","","243.5","","3","1","arrowright","1","arrowright","[0.675,0.325,0.85,0.15]","","",""
"sailing-trial","186","790891","0.0-11.0-151.0","","","","false","","","","","","","","","","null","","69.59999990463257","","3","0","null","null","arrowup","[0.675,0.325,0.85,0.15]","","",""
"sailing-trial","187","794280","0.0-11.0-152.0","","","","false","","","","","","","","","","384.30000019073486","","61.299999952316284","","0","1","arrowleft","0","arrowleft","[0.675,0.325,0.85,0.15]","","",""
"sailing-trial","188","796498","0.0-11.0-153.0","","","","false","","","","","","","","","","null","","806.2999999523163","","1","0","null","null","arrowup","[0.675,0.325,0.85,0.15]","","",""
"sailing-trial","189","799822","0.0-11.0-154.0","","","","false","","","","","","","","","","622.2000000476837","","316.90000009536743","","3","0","arrowright","1","arrowright","[0.675,0.325,0.85,0.15]","","",""
"sailing-trial","190","802160","0.0-11.0-155.0","","","","false","","","","","","","","","","null","","747.5999999046326","","0","0","null","null","arrowup","[0.675,0.325,0.85,0.15]","","",""
"sailing-trial","191","806312","0.0-11.0-156.0","","","","false","","","","","","","","","","651.5999999046326","","454.90000009536743","","2","1","arrowright","1","arrowleft","[0.85,0.15,0.675,0.325]","","",""
"sailing-trial","192","808710","0.0-11.0-157.0","","","","false","","","","","","","","","","null","","912.2999999523163","","3","0","null","null","arrowup","[0.85,0.15,0.675,0.325]","","",""
"sailing-trial","193","812313","0.0-11.0-158.0","","","","false","","","","","","","","","","508.7999999523163","","181.59999990463257","","2","1","arrowright","1","arrowleft","[0.85,0.15,0.675,0.325]","","",""
"sailing-trial","194","815481","0.0-11.0-159.0","","","","false","","","","","","","","","","null","","1102.2000000476837","","3","1","null","null","arrowup","[0.85,0.15,0.675,0.325]","","",""
"sailing-trial","195","819030","0.0-11.0-160.0","","","","false","","","","","","","","","","210.90000009536743","","321.90000009536743","","3","1","arrowright","1","arrowright","[0.85,0.15,0.675,0.325]","","",""
"sailing-trial","196","821393","0.0-11.0-161.0","","","","false","","","","","","","","","","null","","955.5","","2","0","null","null","arrowup","[0.85,0.15,0.675,0.325]","","",""
"sailing-trial","197","824794","0.0-11.0-162.0","","","","false","","","","","","","","","","295","","42.700000047683716","","3","0","arrowright","1","arrowright","[0.85,0.15,0.675,0.325]","","",""
"sailing-trial","198","826458","0.0-11.0-163.0","","","","false","","","","","","","","","","null","","367.2000000476837","","1","0","null","null","arrowup","[0.85,0.15,0.675,0.325]","","",""
"sailing-trial","199","829830","0.0-11.0-164.0","","","","false","","","","","","","","","","429.89999985694885","","140.59999990463257","","0","1","arrowleft","0","arrowleft","[0.85,0.15,0.675,0.325]","","",""
"sailing-trial","200","832548","0.0-11.0-165.0","","","","false","","","","","","","","","","null","","868.2000000476837","","3","1","null","null","arrowup","[0.85,0.15,0.675,0.325]","","",""
"sailing-trial","201","835831","0.0-11.0-166.0","","","","false","","","","","","","","","","303.89999985694885","","51.60000014305115","","0","1","arrowleft","0","arrowleft","[0.85,0.15,0.675,0.325]","","",""
"sailing-trial","202","838297","0.0-11.0-167.0","","","","false","","","","","","","","","","null","","1154.2000000476837","","0","0","null","null","arrowup","[0.85,0.15,0.675,0.325]","","",""
"sailing-trial","203","841914","0.0-11.0-168.0","","","","false","","","","","","","","","","327.90000009536743","","341.59999990463257","","3","1","arrowright","1","arrowright","[0.85,0.15,0.675,0.325]","","",""
"sailing-trial","204","844092","0.0-11.0-169.0","","","","false","","","","","","","","","","null","","833.7000000476837","","0","0","null","null","arrowup","[0.85,0.15,0.675,0.325]","","",""
"sailing-trial","205","847504","0.0-11.0-170.0","","","","false","","","","","","","","","","468.2999999523163","","276.89999985694885","","3","0","arrowright","1","arrowright","[0.85,0.15,0.675,0.325]","","",""
"sailing-trial","206","850197","0.0-11.0-171.0","","","","false","","","","","","","","","","null","","841.5","","0","1","null","null","arrowup","[0.85,0.15,0.675,0.325]","","",""
"sailing-trial","207","853615","0.0-11.0-172.0","","","","false","","","","","","","","","","365.39999985694885","","238.69999980926514","","0","1","arrowleft","0","arrowleft","[0.675,0.325,0.85,0.15]","","",""
"sailing-trial","208","855297","0.0-11.0-173.0","","","","false","","","","","","","","","","null","","80.90000009536743","","2","1","null","null","arrowup","[0.675,0.325,0.85,0.15]","","",""
"sailing-trial","209","858796","0.0-11.0-174.0","","","","false","","","","","","","","","","424.40000009536743","","232.89999985694885","","2","1","arrowright","1","arrowleft","[0.675,0.325,0.85,0.15]","","",""
"sailing-trial","210","861464","0.0-11.0-175.0","","","","false","","","","","","","","","","null","","828.8000001907349","","0","1","null","null","arrowup","[0.675,0.325,0.85,0.15]","","",""
"sailing-trial","211","873531","0.0-11.0-176.0","","","","false","","","","","","","","","","8074","","504.7000000476837","","2","1","arrowright","1","arrowleft","[0.675,0.325,0.85,0.15]","","",""
"sailing-trial","212","875944","0.0-11.0-177.0","","","","false","","","","","","","","","","null","","985","","3","0","null","null","arrowup","[0.675,0.325,0.85,0.15]","","",""
"sailing-trial","213","879644","0.0-11.0-178.0","","","","false","","","","","","","","","","862.9000000953674","","287.5","","1","0","arrowleft","0","arrowright","[0.675,0.325,0.85,0.15]","","",""
"sailing-trial","214","883776","0.0-11.0-179.0","","","","false","","","","","","","","","","null","","2229.399999856949","","3","0","null","null","arrowup","[0.675,0.325,0.85,0.15]","","",""
"sailing-trial","215","890864","0.0-11.0-180.0","","","","false","","","","","","","","","","3409.5","","467.5","","0","1","arrowleft","0","arrowleft","[0.675,0.325,0.85,0.15]","","",""
"sailing-trial","216","895635","0.0-11.0-181.0","","","","false","","","","","","","","","","null","","2025.5","","3","0","null","null","arrowup","[0.675,0.325,0.85,0.15]","","",""
"sailing-trial","217","899626","0.0-11.0-182.0","","","","false","","","","","","","","","","722.8999998569489","","256.60000014305115","","3","0","arrowright","1","arrowright","[0.675,0.325,0.85,0.15]","","",""
"sailing-trial","218","901995","0.0-11.0-183.0","","","","false","","","","","","","","","","null","","1057.0999999046326","","1","0","null","null","arrowup","[0.675,0.325,0.85,0.15]","","",""
"sailing-trial","219","905597","0.0-11.0-184.0","","","","false","","","","","","","","","","693.8999998569489","","78.10000014305115","","2","1","arrowright","1","arrowleft","[0.675,0.325,0.85,0.15]","","",""
"sailing-trial","220","908781","0.0-11.0-185.0","","","","false","","","","","","","","","","null","","931.2000000476837","","2","1","null","null","arrowup","[0.675,0.325,0.85,0.15]","","",""
"sailing-trial","221","912396","0.0-11.0-186.0","","","","false","","","","","","","","","","688.3999998569489","","544.5","","0","0","arrowleft","0","arrowleft","[0.675,0.325,0.85,0.15]","","",""
"sailing-trial","222","915028","0.0-11.0-187.0","","","","false","","","","","","","","","","null","","1388.5999999046326","","1","0","null","null","arrowup","[0.675,0.325,0.85,0.15]","","",""
"sailing-trial","223","918730","0.0-11.0-188.0","","","","false","","","","","","","","","","422.60000014305115","","173.09999990463257","","2","1","arrowright","1","arrowleft","[0.675,0.325,0.85,0.15]","","",""
"sailing-trial","224","921156","0.0-11.0-189.0","","","","false","","","","","","","","","","null","","1229.3999998569489","","0","0","null","null","arrowup","[0.675,0.325,0.85,0.15]","","",""
"sailing-trial","225","925920","0.0-11.0-190.0","","","","false","","","","","","","","","","428.30000019073486","","252.40000009536743","","3","0","arrowright","1","arrowright","[0.675,0.325,0.85,0.15]","","",""
"sailing-trial","226","929246","0.0-11.0-191.0","","","","false","","","","","","","","","","null","","1636.8999998569489","","1","0","null","null","arrowup","[0.675,0.325,0.85,0.15]","","",""
"sailing-trial","227","932319","0.0-11.0-192.0","","","","false","","","","","","","","","","417.7000000476837","","201.70000004768372","","1","0","arrowleft","0","arrowright","[0.85,0.15,0.675,0.325]","","",""
"sailing-trial","228","934847","0.0-11.0-193.0","","","","false","","","","","","","","","","null","","601.5999999046326","","1","1","null","null","arrowup","[0.85,0.15,0.675,0.325]","","",""
"sailing-trial","229","938089","0.0-11.0-194.0","","","","false","","","","","","","","","","536.6000001430511","","258.5","","1","0","arrowleft","0","arrowright","[0.85,0.15,0.675,0.325]","","",""
"sailing-trial","230","940331","0.0-11.0-195.0","","","","false","","","","","","","","","","null","","586.5","","0","1","null","null","arrowup","[0.85,0.15,0.675,0.325]","","",""
"sailing-trial","231","944131","0.0-11.0-196.0","","","","false","","","","","","","","","","450","","213.29999995231628","","0","1","arrowleft","0","arrowleft","[0.85,0.15,0.675,0.325]","","",""
"sailing-trial","232","947916","0.0-11.0-197.0","","","","false","","","","","","","","","","null","","777","","1","0","null","null","arrowup","[0.85,0.15,0.675,0.325]","","",""
"sailing-trial","233","952096","0.0-11.0-198.0","","","","false","","","","","","","","","","743.5999999046326","","119.5","","0","1","arrowleft","0","arrowleft","[0.85,0.15,0.675,0.325]","","",""
"sailing-trial","234","954848","0.0-11.0-199.0","","","","false","","","","","","","","","","null","","988.5","","0","1","null","null","arrowup","[0.85,0.15,0.675,0.325]","","",""
"sailing-trial","235","959364","0.0-11.0-200.0","","","","false","","","","","","","","","","721.9000000953674","","434.69999980926514","","0","1","arrowleft","0","arrowleft","[0.85,0.15,0.675,0.325]","","",""
"sailing-trial","236","961581","0.0-11.0-201.0","","","","false","","","","","","","","","","null","","560.8000001907349","","3","0","null","null","arrowup","[0.85,0.15,0.675,0.325]","","",""
"sailing-trial","237","964460","0.0-11.0-202.0","","","","false","","","","","","","","","","403.2999999523163","","1","","0","0","arrowleft","0","arrowleft","[0.85,0.15,0.675,0.325]","","",""
"sailing-trial","238","967132","0.0-11.0-203.0","","","","false","","","","","","","","","","null","","736.2000000476837","","2","1","null","null","arrowup","[0.85,0.15,0.675,0.325]","","",""
"sailing-trial","239","971448","0.0-11.0-204.0","","","","false","","","","","","","","","","308.10000014305115","","0.8000001907348633","","2","1","arrowright","1","arrowleft","[0.85,0.15,0.675,0.325]","","",""
"sailing-trial","240","974331","0.0-11.0-205.0","","","","false","","","","","","","","","","null","","985.7999999523163","","0","1","null","null","arrowup","[0.85,0.15,0.675,0.325]","","",""
"sailing-trial","241","977697","0.0-11.0-206.0","","","","false","","","","","","","","","","63","","214.60000014305115","","2","1","arrowright","1","arrowleft","[0.85,0.15,0.675,0.325]","","",""
"sailing-trial","242","980464","0.0-11.0-207.0","","","","false","","","","","","","","","","null","","636.5","","3","1","null","null","arrowup","[0.85,0.15,0.675,0.325]","","",""
"sailing-trial","243","984147","0.0-11.0-208.0","","","","false","","","","","","","","","","437.90000009536743","","110.10000014305115","","2","1","arrowright","1","arrowleft","[0.675,0.325,0.85,0.15]","","",""
"sailing-trial","244","986111","0.0-11.0-209.0","","","","false","","","","","","","","","","null","","591","","1","0","null","null","arrowup","[0.675,0.325,0.85,0.15]","","",""
"sailing-trial","245","989697","0.0-11.0-210.0","","","","false","","","","","","","","","","650.2000000476837","","16.100000143051147","","2","1","arrowright","1","arrowleft","[0.675,0.325,0.85,0.15]","","",""
"sailing-trial","246","992448","0.0-11.0-211.0","","","","false","","","","","","","","","","null","","871","","2","1","null","null","arrowup","[0.675,0.325,0.85,0.15]","","",""
"sailing-trial","247","995964","0.0-11.0-212.0","","","","false","","","","","","","","","","490.89999985694885","","88.79999995231628","","2","1","arrowright","1","arrowleft","[0.675,0.325,0.85,0.15]","","",""
"sailing-trial","248","998134","0.0-11.0-213.0","","","","false","","","","","","","","","","null","","864.2000000476837","","3","0","null","null","arrowup","[0.675,0.325,0.85,0.15]","","",""
"sailing-trial","249","1002883","0.0-11.0-214.0","","","","false","","","","","","","","","","597.2999999523163","","53.700000047683716","","2","0","arrowright","1","arrowleft","[0.675,0.325,0.85,0.15]","","",""
"sailing-trial","250","1005112","0.0-11.0-215.0","","","","false","","","","","","","","","","null","","635.8999998569489","","0","0","null","null","arrowup","[0.675,0.325,0.85,0.15]","","",""
"sailing-trial","251","1008771","0.0-11.0-216.0","","","","false","","","","","","","","","","629.2000000476837","","428.7999999523163","","1","0","arrowleft","0","arrowright","[0.675,0.325,0.85,0.15]","","",""
"sailing-trial","252","1011331","0.0-11.0-217.0","","","","false","","","","","","","","","","null","","704.4000000953674","","0","1","null","null","arrowup","[0.675,0.325,0.85,0.15]","","",""
"sailing-trial","253","1015098","0.0-11.0-218.0","","","","false","","","","","","","","","","482.09999990463257","","362.09999990463257","","0","1","arrowleft","0","arrowleft","[0.675,0.325,0.85,0.15]","","",""
"sailing-trial","254","1018347","0.0-11.0-219.0","","","","false","","","","","","","","","","null","","717.1000001430511","","0","1","null","null","arrowup","[0.675,0.325,0.85,0.15]","","",""
"sailing-trial","255","1023364","0.0-11.0-220.0","","","","false","","","","","","","","","","884.5","","584.1999998092651","","0","1","arrowleft","0","arrowleft","[0.675,0.325,0.85,0.15]","","",""
"sailing-trial","256","1026598","0.0-11.0-221.0","","","","false","","","","","","","","","","null","","767.8999998569489","","0","1","null","null","arrowup","[0.675,0.325,0.85,0.15]","","",""
"sailing-trial","257","1029831","0.0-11.0-222.0","","","","false","","","","","","","","","","361.90000009536743","","219.29999995231628","","0","1","arrowleft","0","arrowleft","[0.675,0.325,0.85,0.15]","","",""
"sailing-trial","258","1032377","0.0-11.0-223.0","","","","false","","","","","","","","","","null","","990.1000001430511","","3","0","null","null","arrowup","[0.675,0.325,0.85,0.15]","","",""
"sailing-trial","259","1036430","0.0-11.0-224.0","","","","false","","","","","","","","","","546.5999999046326","","280.59999990463257","","0","1","arrowleft","0","arrowleft","[0.675,0.325,0.85,0.15]","","",""
"sailing-trial","260","1039431","0.0-11.0-225.0","","","","false","","","","","","","","","","null","","608.7000000476837","","1","1","null","null","arrowup","[0.675,0.325,0.85,0.15]","","",""
"sailing-trial","261","1043014","0.0-11.0-226.0","","","","false","","","","","","","","","","107.20000004768372","","220.60000014305115","","0","1","arrowleft","0","arrowleft","[0.675,0.325,0.85,0.15]","","",""
"sailing-trial","262","1045630","0.0-11.0-227.0","","","","false","","","","","","","","","","null","","1075.0999999046326","","2","0","null","null","arrowup","[0.675,0.325,0.85,0.15]","","",""
"sailing-trial","263","1049531","0.0-11.0-228.0","","","","false","","","","","","","","","","462.5","","309.10000014305115","","0","1","arrowleft","0","arrowleft","[0.15,0.85,0.325,0.675]","","",""
"sailing-trial","264","1051800","0.0-11.0-229.0","","","","false","","","","","","","","","","null","","905.9000000953674","","0","0","null","null","arrowup","[0.15,0.85,0.325,0.675]","","",""
"sailing-trial","265","1055714","0.0-11.0-230.0","","","","false","","","","","","","","","","702.4000000953674","","131.19999980926514","","1","0","arrowleft","0","arrowright","[0.15,0.85,0.325,0.675]","","",""
"sailing-trial","266","1059630","0.0-11.0-231.0","","","","false","","","","","","","","","","null","","1188.5","","3","1","null","null","arrowup","[0.15,0.85,0.325,0.675]","","",""
"sailing-trial","267","1063513","0.0-11.0-232.0","","","","false","","","","","","","","","","393.7000000476837","","414.80000019073486","","3","1","arrowright","1","arrowright","[0.15,0.85,0.325,0.675]","","",""
"sailing-trial","268","1066414","0.0-11.0-233.0","","","","false","","","","","","","","","","null","","920.8999998569489","","2","1","null","null","arrowup","[0.15,0.85,0.325,0.675]","","",""
"sailing-trial","269","1069981","0.0-11.0-234.0","","","","false","","","","","","","","","","416.7000000476837","","180.40000009536743","","3","1","arrowright","1","arrowright","[0.15,0.85,0.325,0.675]","","",""
"sailing-trial","270","1073364","0.0-11.0-235.0","","","","false","","","","","","","","","","null","","1184.3999998569489","","3","1","null","null","arrowup","[0.15,0.85,0.325,0.675]","","",""
"sailing-trial","271","1076780","0.0-11.0-236.0","","","","false","","","","","","","","","","207.19999980926514","","46","","3","1","arrowright","1","arrowright","[0.15,0.85,0.325,0.675]","","",""
"sailing-trial","272","1078894","0.0-11.0-237.0","","","","false","","","","","","","","","","null","","588.8999998569489","","0","0","null","null","arrowup","[0.15,0.85,0.325,0.675]","","",""
"sailing-trial","273","1082780","0.0-11.0-238.0","","","","false","","","","","","","","","","295.5","","90.40000009536743","","3","1","arrowright","1","arrowright","[0.15,0.85,0.325,0.675]","","",""
"sailing-trial","274","1085248","0.0-11.0-239.0","","","","false","","","","","","","","","","null","","569.3000001907349","","3","1","null","null","arrowup","[0.15,0.85,0.325,0.675]","","",""
"sailing-trial","275","1089164","0.0-11.0-240.0","","","","false","","","","","","","","","","526.2000000476837","","232.89999985694885","","3","1","arrowright","1","arrowright","[0.15,0.85,0.325,0.675]","","",""
"sailing-trial","276","1092381","0.0-11.0-241.0","","","","false","","","","","","","","","","null","","1356.2999999523163","","3","1","null","null","arrowup","[0.15,0.85,0.325,0.675]","","",""
"sailing-trial","277","1096480","0.0-11.0-242.0","","","","false","","","","","","","","","","642.2999999523163","","492.60000014305115","","3","1","arrowright","1","arrowright","[0.15,0.85,0.325,0.675]","","",""
"sailing-trial","278","1099026","0.0-11.0-243.0","","","","false","","","","","","","","","","null","","1090.8999998569489","","3","0","null","null","arrowup","[0.15,0.85,0.325,0.675]","","",""
"sailing-trial","279","1102981","0.0-11.0-244.0","","","","false","","","","","","","","","","580.2999999523163","","66","","2","1","arrowright","1","arrowleft","[0.15,0.85,0.325,0.675]","","",""
"sailing-trial","280","1105092","0.0-11.0-245.0","","","","false","","","","","","","","","","null","","675.4000000953674","","2","0","null","null","arrowup","[0.15,0.85,0.325,0.675]","","",""
"sailing-trial","281","1108727","0.0-11.0-246.0","","","","false","","","","","","","","","","597.2000000476837","","365.2999999523163","","1","0","arrowleft","0","arrowright","[0.85,0.15,0.675,0.325]","","",""
"sailing-trial","282","1111221","0.0-11.0-247.0","","","","false","","","","","","","","","","null","","1110.2999999523163","","2","0","null","null","arrowup","[0.85,0.15,0.675,0.325]","","",""
"sailing-trial","283","1114880","0.0-11.0-248.0","","","","false","","","","","","","","","","363.7999999523163","","405.69999980926514","","0","1","arrowleft","0","arrowleft","[0.85,0.15,0.675,0.325]","","",""
"sailing-trial","284","1117448","0.0-11.0-249.0","","","","false","","","","","","","","","","null","","647.3999998569489","","0","1","null","null","arrowup","[0.85,0.15,0.675,0.325]","","",""
"sailing-trial","285","1121681","0.0-11.0-250.0","","","","false","","","","","","","","","","762.9000000953674","","260","","0","1","arrowleft","0","arrowleft","[0.85,0.15,0.675,0.325]","","",""
"sailing-trial","286","1124144","0.0-11.0-251.0","","","","false","","","","","","","","","","null","","686.0999999046326","","1","0","null","null","arrowup","[0.85,0.15,0.675,0.325]","","",""
"sailing-trial","287","1127830","0.0-11.0-252.0","","","","false","","","","","","","","","","345.60000014305115","","489.2000000476837","","0","1","arrowleft","0","arrowleft","[0.85,0.15,0.675,0.325]","","",""
"sailing-trial","288","1131080","0.0-11.0-253.0","","","","false","","","","","","","","","","null","","1477.5","","2","1","null","null","arrowup","[0.85,0.15,0.675,0.325]","","",""
"sailing-trial","289","1135196","0.0-11.0-254.0","","","","false","","","","","","","","","","727.7999999523163","","316.7999999523163","","0","1","arrowleft","0","arrowleft","[0.85,0.15,0.675,0.325]","","",""
"sailing-trial","290","1138147","0.0-11.0-255.0","","","","false","","","","","","","","","","null","","943.4000000953674","","2","1","null","null","arrowup","[0.85,0.15,0.675,0.325]","","",""
"sailing-trial","291","1141914","0.0-11.0-256.0","","","","false","","","","","","","","","","260.5","","482.10000014305115","","0","1","arrowleft","0","arrowleft","[0.85,0.15,0.675,0.325]","","",""
"sailing-trial","292","1144731","0.0-11.0-257.0","","","","false","","","","","","","","","","null","","1002.3000001907349","","2","1","null","null","arrowup","[0.85,0.15,0.675,0.325]","","",""
"sailing-trial","293","1148010","0.0-11.0-258.0","","","","false","","","","","","","","","","475.2999999523163","","232.5","","0","0","arrowleft","0","arrowleft","[0.85,0.15,0.675,0.325]","","",""
"sailing-trial","294","1150797","0.0-11.0-259.0","","","","false","","","","","","","","","","null","","634.5","","2","1","null","null","arrowup","[0.85,0.15,0.675,0.325]","","",""
"sailing-trial","295","1153466","0.0-11.0-260.0","","","","false","","","","","","","","","","215.10000014305115","","26.200000047683716","","2","0","arrowright","1","arrowleft","[0.85,0.15,0.675,0.325]","","",""
"sailing-trial","296","1155880","0.0-11.0-261.0","","","","false","","","","","","","","","","null","","654.6000001430511","","3","1","null","null","arrowup","[0.85,0.15,0.675,0.325]","","",""
"sailing-trial","297","1159346","0.0-11.0-262.0","","","","false","","","","","","","","","","541.9000000953674","","329.7000000476837","","3","0","arrowright","1","arrowright","[0.85,0.15,0.675,0.325]","","",""
"sailing-trial","298","1161896","0.0-11.0-263.0","","","","false","","","","","","","","","","null","","722.2999999523163","","2","1","null","null","arrowup","[0.85,0.15,0.675,0.325]","","",""
"sailing-trial","299","1165880","0.0-11.0-264.0","","","","false","","","","","","","","","","550.7999999523163","","420","","2","1","arrowright","1","arrowleft","[0.85,0.15,0.675,0.325]","","",""
"sailing-trial","300","1168002","0.0-11.0-265.0","","","","false","","","","","","","","","","null","","645.5","","2","0","null","null","arrowup","[0.85,0.15,0.675,0.325]","","",""
"sailing-trial","301","1171783","0.0-11.0-266.0","","","","false","","","","","","","","","","756.8000001907349","","388.80000019073486","","1","0","arrowleft","0","arrowright","[0.85,0.15,0.675,0.325]","","",""
"sailing-trial","302","1175114","0.0-11.0-267.0","","","","false","","","","","","","","","","null","","908.5999999046326","","3","1","null","null","arrowup","[0.85,0.15,0.675,0.325]","","",""
"sailing-trial","303","1179309","0.0-11.0-268.0","","","","false","","","","","","","","","","413.40000009536743","","808.3999998569489","","3","0","arrowright","1","arrowright","[0.675,0.325,0.85,0.15]","","",""
"sailing-trial","304","1183030","0.0-11.0-269.0","","","","false","","","","","","","","","","null","","1305.2000000476837","","0","1","null","null","arrowup","[0.675,0.325,0.85,0.15]","","",""
"sailing-trial","305","1186463","0.0-11.0-270.0","","","","false","","","","","","","","","","328","","85.5","","0","1","arrowleft","0","arrowleft","[0.675,0.325,0.85,0.15]","","",""
"sailing-trial","306","1188871","0.0-11.0-271.0","","","","false","","","","","","","","","","null","","1073.7999999523163","","3","0","null","null","arrowup","[0.675,0.325,0.85,0.15]","","",""
"sailing-trial","307","1194095","0.0-11.0-272.0","","","","false","","","","","","","","","","954.2999999523163","","1009.7999999523163","","2","1","arrowright","1","arrowleft","[0.675,0.325,0.85,0.15]","","",""
"sailing-trial","308","1196396","0.0-11.0-273.0","","","","false","","","","","","","","","","null","","375.10000014305115","","0","1","null","null","arrowup","[0.675,0.325,0.85,0.15]","","",""
"sailing-trial","309","1199539","0.0-11.0-274.0","","","","false","","","","","","","","","","597.1000001430511","","253.79999995231628","","2","0","arrowright","1","arrowleft","[0.675,0.325,0.85,0.15]","","",""
"sailing-trial","310","1202380","0.0-11.0-275.0","","","","false","","","","","","","","","","null","","638.2000000476837","","1","1","null","null","arrowup","[0.675,0.325,0.85,0.15]","","",""
"sailing-trial","311","1205847","0.0-11.0-276.0","","","","false","","","","","","","","","","325.5","","278.7000000476837","","0","1","arrowleft","0","arrowleft","[0.675,0.325,0.85,0.15]","","",""
"sailing-trial","312","1209516","0.0-11.0-277.0","","","","false","","","","","","","","","","null","","1227.4000000953674","","2","0","null","null","arrowup","[0.675,0.325,0.85,0.15]","","",""
"sailing-trial","313","1213747","0.0-11.0-278.0","","","","false","","","","","","","","","","399.40000009536743","","411.7000000476837","","0","1","arrowleft","0","arrowleft","[0.675,0.325,0.85,0.15]","","",""
"sailing-trial","314","1215678","0.0-11.0-279.0","","","","false","","","","","","","","","","null","","610.2999999523163","","1","0","null","null","arrowup","[0.675,0.325,0.85,0.15]","","",""
"sailing-trial","315","1219230","0.0-11.0-280.0","","","","false","","","","","","","","","","318.59999990463257","","232.79999995231628","","0","1","arrowleft","0","arrowleft","[0.675,0.325,0.85,0.15]","","",""
"sailing-trial","316","1222038","0.0-11.0-281.0","","","","false","","","","","","","","","","null","","0.09999990463256836","","3","0","null","null","arrowup","[0.675,0.325,0.85,0.15]","","",""
"sailing-trial","317","1226080","0.0-11.0-282.0","","","","false","","","","","","","","","","666.5","","156.5","","0","1","arrowleft","0","arrowleft","[0.675,0.325,0.85,0.15]","","",""
"sailing-trial","318","1228300","0.0-11.0-283.0","","","","false","","","","","","","","","","null","","762.8999998569489","","1","0","null","null","arrowup","[0.675,0.325,0.85,0.15]","","",""
"sailing-trial","319","1231831","0.0-11.0-284.0","","","","false","","","","","","","","","","322.39999985694885","","359","","0","1","arrowleft","0","arrowleft","[0.85,0.15,0.675,0.325]","","",""
"sailing-trial","320","1233771","0.0-11.0-285.0","","","","false","","","","","","","","","","null","","549.5","","3","0","null","null","arrowup","[0.85,0.15,0.675,0.325]","","",""
"sailing-trial","321","1238464","0.0-11.0-286.0","","","","false","","","","","","","","","","253.29999995231628","","717.0999999046326","","0","1","arrowleft","0","arrowleft","[0.85,0.15,0.675,0.325]","","",""
"sailing-trial","322","1241697","0.0-11.0-287.0","","","","false","","","","","","","","","","null","","1137.6000001430511","","2","1","null","null","arrowup","[0.85,0.15,0.675,0.325]","","",""
"sailing-trial","323","1245514","0.0-11.0-288.0","","","","false","","","","","","","","","","650.5","","161.09999990463257","","0","1","arrowleft","0","arrowleft","[0.85,0.15,0.675,0.325]","","",""
"sailing-trial","324","1248580","0.0-11.0-289.0","","","","false","","","","","","","","","","null","","952.9000000953674","","0","1","null","null","arrowup","[0.85,0.15,0.675,0.325]","","",""
"sailing-trial","325","1252314","0.0-11.0-290.0","","","","false","","","","","","","","","","557.6000001430511","","56.39999985694885","","0","1","arrowleft","0","arrowleft","[0.85,0.15,0.675,0.325]","","",""
"sailing-trial","326","1255056","0.0-11.0-291.0","","","","false","","","","","","","","","","null","","1183.7999999523163","","3","0","null","null","arrowup","[0.85,0.15,0.675,0.325]","","",""
"sailing-trial","327","1258597","0.0-11.0-292.0","","","","false","","","","","","","","","","371.89999985694885","","132.09999990463257","","0","1","arrowleft","0","arrowleft","[0.85,0.15,0.675,0.325]","","",""
"sailing-trial","328","1261831","0.0-11.0-293.0","","","","false","","","","","","","","","","null","","1041.7999999523163","","0","1","null","null","arrowup","[0.85,0.15,0.675,0.325]","","",""
"sailing-trial","329","1265713","0.0-11.0-294.0","","","","false","","","","","","","","","","256.2999999523163","","662.0999999046326","","0","1","arrowleft","0","arrowleft","[0.85,0.15,0.675,0.325]","","",""
"sailing-trial","330","1267864","0.0-11.0-295.0","","","","false","","","","","","","","","","null","","135.79999995231628","","0","1","null","null","arrowup","[0.85,0.15,0.675,0.325]","","",""
"sailing-trial","331","1271029","0.0-11.0-296.0","","","","false","","","","","","","","","","259.90000009536743","","88.60000014305115","","0","1","arrowleft","0","arrowleft","[0.85,0.15,0.675,0.325]","","",""
"sailing-trial","332","1273163","0.0-11.0-297.0","","","","false","","","","","","","","","","null","","705.2999999523163","","3","0","null","null","arrowup","[0.85,0.15,0.675,0.325]","","",""
"sailing-trial","333","1276107","0.0-11.0-298.0","","","","false","","","","","","","","","","307.90000009536743","","187.79999995231628","","0","0","arrowleft","0","arrowleft","[0.85,0.15,0.675,0.325]","","",""
"sailing-trial","334","1278130","0.0-11.0-299.0","","","","false","","","","","","","","","","null","","747.5","","2","0","null","null","arrowup","[0.85,0.15,0.675,0.325]","","",""
"sailing-trial","335","1282127","0.0-11.0-300.0","","","","false","","","","","","","","","","911.2999999523163","","168.29999995231628","","1","0","arrowleft","0","arrowright","[0.85,0.15,0.675,0.325]","","",""
"sailing-trial","336","1284998","0.0-11.0-301.0","","","","false","","","","","","","","","","null","","678.7999999523163","","0","1","null","null","arrowup","[0.85,0.15,0.675,0.325]","","",""
"sailing-trial","337","1289080","0.0-11.0-302.0","","","","false","","","","","","","","","","691","","213.5","","0","1","arrowleft","0","arrowleft","[0.85,0.15,0.675,0.325]","","",""
"sailing-trial","338","1291213","0.0-11.0-303.0","","","","false","","","","","","","","","","null","","733.2000000476837","","3","0","null","null","arrowup","[0.85,0.15,0.675,0.325]","","",""
"sailing-trial","339","1294630","0.0-11.0-304.0","","","","false","","","","","","","","","","378.10000014305115","","118.29999995231628","","0","1","arrowleft","0","arrowleft","[0.675,0.325,0.85,0.15]","","",""
"sailing-trial","340","1296829","0.0-11.0-305.0","","","","false","","","","","","","","","","null","","816.9000000953674","","2","0","null","null","arrowup","[0.675,0.325,0.85,0.15]","","",""
"sailing-trial","341","1300480","0.0-11.0-306.0","","","","false","","","","","","","","","","307.5","","386.5","","0","1","arrowleft","0","arrowleft","[0.675,0.325,0.85,0.15]","","",""
"sailing-trial","342","1303083","0.0-11.0-307.0","","","","false","","","","","","","","","","null","","858.1000001430511","","1","0","null","null","arrowup","[0.675,0.325,0.85,0.15]","","",""
"sailing-trial","343","1306663","0.0-11.0-308.0","","","","false","","","","","","","","","","453.39999985694885","","275.30000019073486","","0","1","arrowleft","0","arrowleft","[0.675,0.325,0.85,0.15]","","",""
"sailing-trial","344","1309579","0.0-11.0-309.0","","","","false","","","","","","","","","","null","","1013.1999998092651","","0","1","null","null","arrowup","[0.675,0.325,0.85,0.15]","","",""
"sailing-trial","345","1312753","0.0-11.0-310.0","","","","false","","","","","","","","","","586.2999999523163","","68.20000004768372","","0","0","arrowleft","0","arrowleft","[0.675,0.325,0.85,0.15]","","",""
"sailing-trial","346","1315414","0.0-11.0-311.0","","","","false","","","","","","","","","","null","","564.5999999046326","","1","1","null","null","arrowup","[0.675,0.325,0.85,0.15]","","",""
"sailing-trial","347","1318953","0.0-11.0-312.0","","","","false","","","","","","","","","","710.5","","390.60000014305115","","1","0","arrowleft","0","arrowright","[0.675,0.325,0.85,0.15]","","",""
"sailing-trial","348","1320865","0.0-11.0-313.0","","","","false","","","","","","","","","","null","","733.7000000476837","","1","0","null","null","arrowup","[0.675,0.325,0.85,0.15]","","",""
"sailing-trial","349","1325080","0.0-11.0-314.0","","","","false","","","","","","","","","","602.7000000476837","","542.1000001430511","","0","1","arrowleft","0","arrowleft","[0.675,0.325,0.85,0.15]","","",""
"sailing-trial","350","1327586","0.0-11.0-315.0","","","","false","","","","","","","","","","null","","925.1999998092651","","0","0","null","null","arrowup","[0.675,0.325,0.85,0.15]","","",""
"sailing-trial","351","1330706","0.0-11.0-316.0","","","","false","","","","","","","","","","352.2999999523163","","302.59999990463257","","3","0","arrowright","1","arrowright","[0.675,0.325,0.85,0.15]","","",""
"sailing-trial","352","1333481","0.0-11.0-317.0","","","","false","","","","","","","","","","null","","891","","3","1","null","null","arrowup","[0.675,0.325,0.85,0.15]","","",""
"sailing-trial","353","1336875","0.0-11.0-318.0","","","","false","","","","","","","","","","389.89999985694885","","371.2000000476837","","3","0","arrowright","1","arrowright","[0.675,0.325,0.85,0.15]","","",""
"sailing-trial","354","1339362","0.0-11.0-319.0","","","","false","","","","","","","","","","null","","988.7000000476837","","3","0","null","null","arrowup","[0.675,0.325,0.85,0.15]","","",""
"sailing-trial","355","1343197","0.0-11.0-320.0","","","","false","","","","","","","","","","511.5","","447","","2","1","arrowright","1","arrowleft","[0.15,0.85,0.325,0.675]","","",""
"sailing-trial","356","1347185","0.0-11.0-321.0","","","","false","","","","","","","","","","null","","622.7999999523163","","3","1","null","null","arrowup","[0.15,0.85,0.325,0.675]","","",""
"sailing-trial","357","1351262","0.0-11.0-322.0","","","","false","","","","","","","","","","665.8000001907349","","584","","2","0","arrowright","1","arrowleft","[0.15,0.85,0.325,0.675]","","",""
"sailing-trial","358","1353400","0.0-11.0-323.0","","","","false","","","","","","","","","","null","","730.0999999046326","","3","0","null","null","arrowup","[0.15,0.85,0.325,0.675]","","",""
"sailing-trial","359","1357080","0.0-11.0-324.0","","","","false","","","","","","","","","","512","","228.79999995231628","","1","1","arrowleft","0","arrowright","[0.15,0.85,0.325,0.675]","","",""
"sailing-trial","360","1359068","0.0-11.0-325.0","","","","false","","","","","","","","","","null","","667.6999998092651","","2","0","null","null","arrowup","[0.15,0.85,0.325,0.675]","","",""
"sailing-trial","361","1362497","0.0-11.0-326.0","","","","false","","","","","","","","","","387.89999985694885","","330.7000000476837","","1","1","arrowleft","0","arrowright","[0.15,0.85,0.325,0.675]","","",""
"sailing-trial","362","1365347","0.0-11.0-327.0","","","","false","","","","","","","","","","null","","973.5","","1","1","null","null","arrowup","[0.15,0.85,0.325,0.675]","","",""
"sailing-trial","363","1369347","0.0-11.0-328.0","","","","false","","","","","","","","","","433.39999985694885","","496.5","","1","1","arrowleft","0","arrowright","[0.15,0.85,0.325,0.675]","","",""
"sailing-trial","364","1371831","0.0-11.0-329.0","","","","false","","","","","","","","","","null","","558.7999999523163","","3","1","null","null","arrowup","[0.15,0.85,0.325,0.675]","","",""
"sailing-trial","365","1375363","0.0-11.0-330.0","","","","false","","","","","","","","","","490.5","","131.59999990463257","","1","1","arrowleft","0","arrowright","[0.15,0.85,0.325,0.675]","","",""
"sailing-trial","366","1377865","0.0-11.0-331.0","","","","false","","","","","","","","","","null","","662.9000000953674","","2","0","null","null","arrowup","[0.15,0.85,0.325,0.675]","","",""
"sailing-trial","367","1381330","0.0-11.0-332.0","","","","false","","","","","","","","","","603.0999999046326","","138.40000009536743","","1","1","arrowleft","0","arrowright","[0.15,0.85,0.325,0.675]","","",""
"sailing-trial","368","1383605","0.0-11.0-333.0","","","","false","","","","","","","","","","null","","969.5","","0","0","null","null","arrowup","[0.15,0.85,0.325,0.675]","","",""
"sailing-trial","369","1387380","0.0-11.0-334.0","","","","false","","","","","","","","","","233.60000014305115","","112.59999990463257","","1","1","arrowleft","0","arrowright","[0.15,0.85,0.325,0.675]","","",""
"sailing-trial","370","1389846","0.0-11.0-335.0","","","","false","","","","","","","","","","null","","1064.5","","2","0","null","null","arrowup","[0.15,0.85,0.325,0.675]","","",""
"sailing-trial","371","1393897","0.0-11.0-336.0","","","","false","","","","","","","","","","547.5","","98.90000009536743","","1","1","arrowleft","0","arrowright","[0.15,0.85,0.325,0.675]","","",""
"sailing-trial","372","1396269","0.0-11.0-337.0","","","","false","","","","","","","","","","null","","1007","","2","0","null","null","arrowup","[0.15,0.85,0.325,0.675]","","",""
"sailing-trial","373","1400230","0.0-11.0-338.0","","","","false","","","","","","","","","","844.0999999046326","","152.09999990463257","","1","1","arrowleft","0","arrowright","[0.15,0.85,0.325,0.675]","","",""
"sailing-trial","374","1402425","0.0-11.0-339.0","","","","false","","","","","","","","","","null","","554.7999999523163","","2","0","null","null","arrowup","[0.15,0.85,0.325,0.675]","","",""
"sailing-trial","375","1406575","0.0-11.0-340.0","","","","false","","","","","","","","","","615.7999999523163","","248.5","","1","0","arrowleft","0","arrowright","[0.15,0.85,0.325,0.675]","","",""
"sailing-trial","376","1408838","0.0-11.0-341.0","","","","false","","","","","","","","","","null","","899.3999998569489","","2","0","null","null","arrowup","[0.15,0.85,0.325,0.675]","","",""
"sailing-trial","377","1412563","0.0-11.0-342.0","","","","false","","","","","","","","","","317.40000009536743","","222.09999990463257","","3","1","arrowright","1","arrowright","[0.15,0.85,0.325,0.675]","","",""
"sailing-trial","378","1415630","0.0-11.0-343.0","","","","false","","","","","","","","","","null","","886.2000000476837","","3","1","null","null","arrowup","[0.15,0.85,0.325,0.675]","","",""
"sailing-trial","379","1419277","0.0-11.0-344.0","","","","false","","","","","","","","","","843.6999998092651","","206.10000014305115","","3","0","arrowright","1","arrowright","[0.325,0.675,0.15,0.85]","","",""
"sailing-trial","380","1422363","0.0-11.0-345.0","","","","false","","","","","","","","","","null","","1153.7999999523163","","1","1","null","null","arrowup","[0.325,0.675,0.15,0.85]","","",""
"sailing-trial","381","1426546","0.0-11.0-346.0","","","","false","","","","","","","","","","527.1000001430511","","272.7999999523163","","1","1","arrowleft","0","arrowright","[0.325,0.675,0.15,0.85]","","",""
"sailing-trial","382","1429193","0.0-11.0-347.0","","","","false","","","","","","","","","","null","","1267.8999998569489","","0","0","null","null","arrowup","[0.325,0.675,0.15,0.85]","","",""
"sailing-trial","383","1433097","0.0-11.0-348.0","","","","false","","","","","","","","","","489.89999985694885","","258.5","","1","1","arrowleft","0","arrowright","[0.325,0.675,0.15,0.85]","","",""
"sailing-trial","384","1435427","0.0-11.0-349.0","","","","false","","","","","","","","","","null","","910.2999999523163","","3","0","null","null","arrowup","[0.325,0.675,0.15,0.85]","","",""
"sailing-trial","385","1439379","0.0-11.0-350.0","","","","false","","","","","","","","","","518.5","","370.7000000476837","","1","1","arrowleft","0","arrowright","[0.325,0.675,0.15,0.85]","","",""
"sailing-trial","386","1441479","0.0-11.0-351.0","","","","false","","","","","","","","","","null","","843.8999998569489","","2","0","null","null","arrowup","[0.325,0.675,0.15,0.85]","","",""
"sailing-trial","387","1444827","0.0-11.0-352.0","","","","false","","","","","","","","","","400.5","","459.59999990463257","","1","0","arrowleft","0","arrowright","[0.325,0.675,0.15,0.85]","","",""
"sailing-trial","388","1447680","0.0-11.0-353.0","","","","false","","","","","","","","","","null","","1134.0999999046326","","3","1","null","null","arrowup","[0.325,0.675,0.15,0.85]","","",""
"sailing-trial","389","1451429","0.0-11.0-354.0","","","","false","","","","","","","","","","310.59999990463257","","13.200000047683716","","3","1","arrowright","1","arrowright","[0.325,0.675,0.15,0.85]","","",""
"sailing-trial","390","1453940","0.0-11.0-355.0","","","","false","","","","","","","","","","null","","1021.3999998569489","","2","0","null","null","arrowup","[0.325,0.675,0.15,0.85]","","",""
"sailing-trial","391","1457847","0.0-11.0-356.0","","","","false","","","","","","","","","","618.3999998569489","","154.79999995231628","","3","1","arrowright","1","arrowright","[0.325,0.675,0.15,0.85]","","",""
"sailing-trial","392","1460326","0.0-11.0-357.0","","","","false","","","","","","","","","","null","","1109.5","","2","0","null","null","arrowup","[0.325,0.675,0.15,0.85]","","",""
"sailing-trial","393","1464013","0.0-11.0-358.0","","","","false","","","","","","","","","","467.90000009536743","","86.39999985694885","","3","1","arrowright","1","arrowright","[0.325,0.675,0.15,0.85]","","",""
"sailing-trial","394","1466406","0.0-11.0-359.0","","","","false","","","","","","","","","","null","","914.2999999523163","","0","0","null","null","arrowup","[0.325,0.675,0.15,0.85]","","",""
"sailing-trial","395","1470045","0.0-11.0-360.0","","","","false","","","","","","","","","","695","","32.19999980926514","","3","1","arrowright","1","arrowright","[0.325,0.675,0.15,0.85]","","",""
"sailing-trial","396","1471928","0.0-11.0-361.0","","","","false","","","","","","","","","","null","","563","","1","0","null","null","arrowup","[0.325,0.675,0.15,0.85]","","",""
"sailing-trial","397","1476430","0.0-11.0-362.0","","","","false","","","","","","","","","","827.2999999523163","","349.7999999523163","","3","1","arrowright","1","arrowright","[0.325,0.675,0.15,0.85]","","",""
"sailing-trial","398","1478631","0.0-11.0-363.0","","","","false","","","","","","","","","","null","","688.2000000476837","","2","0","null","null","arrowup","[0.325,0.675,0.15,0.85]","","",""
"sailing-trial","399","1482563","0.0-11.0-364.0","","","","false","","","","","","","","","","422","","463.2999999523163","","3","1","arrowright","1","arrowright","[0.325,0.675,0.15,0.85]","","",""
"sailing-trial","400","1484304","0.0-11.0-365.0","","","","false","","","","","","","","","","null","","374.7000000476837","","1","0","null","null","arrowup","[0.325,0.675,0.15,0.85]","","",""
"sailing-trial","401","1488247","0.0-11.0-366.0","","","","false","","","","","","","","","","623.5","","342.7000000476837","","3","1","arrowright","1","arrowright","[0.15,0.85,0.325,0.675]","","",""
"sailing-trial","402","1490397","0.0-11.0-367.0","","","","false","","","","","","","","","","null","","348","","2","1","null","null","arrowup","[0.15,0.85,0.325,0.675]","","",""
"sailing-trial","403","1493548","0.0-11.0-368.0","","","","false","","","","","","","","","","435.19999980926514","","452.09999990463257","","3","0","arrowright","1","arrowright","[0.15,0.85,0.325,0.675]","","",""
"sailing-trial","404","1496247","0.0-11.0-369.0","","","","false","","","","","","","","","","null","","890.7000000476837","","1","1","null","null","arrowup","[0.15,0.85,0.325,0.675]","","",""
"sailing-trial","405","1499811","0.0-11.0-370.0","","","","false","","","","","","","","","","512","","180.59999990463257","","1","1","arrowleft","0","arrowright","[0.15,0.85,0.325,0.675]","","",""
"sailing-trial","406","1502369","0.0-11.0-371.0","","","","false","","","","","","","","","","null","","1182.3999998569489","","0","0","null","null","arrowup","[0.15,0.85,0.325,0.675]","","",""
"sailing-trial","407","1506147","0.0-11.0-372.0","","","","false","","","","","","","","","","567.0999999046326","","372.5","","1","1","arrowleft","0","arrowright","[0.15,0.85,0.325,0.675]","","",""
"sailing-trial","408","1508597","0.0-11.0-373.0","","","","false","","","","","","","","","","null","","685.7000000476837","","1","1","null","null","arrowup","[0.15,0.85,0.325,0.675]","","",""
"sailing-trial","409","1512278","0.0-11.0-374.0","","","","false","","","","","","","","","","582.5","","174.30000019073486","","1","1","arrowleft","0","arrowright","[0.15,0.85,0.325,0.675]","","",""
"sailing-trial","410","1516464","0.0-11.0-375.0","","","","false","","","","","","","","","","null","","577.2999999523163","","1","1","null","null","arrowup","[0.15,0.85,0.325,0.675]","","",""
"sailing-trial","411","1520230","0.0-11.0-376.0","","","","false","","","","","","","","","","518.5","","269.30000019073486","","1","1","arrowleft","0","arrowright","[0.15,0.85,0.325,0.675]","","",""
"sailing-trial","412","1522332","0.0-11.0-377.0","","","","false","","","","","","","","","","null","","582.9000000953674","","1","0","null","null","arrowup","[0.15,0.85,0.325,0.675]","","",""
"sailing-trial","413","1525867","0.0-11.0-378.0","","","","false","","","","","","","","","","824","","303.59999990463257","","2","0","arrowright","1","arrowleft","[0.15,0.85,0.325,0.675]","","",""
"sailing-trial","414","1527728","0.0-11.0-379.0","","","","false","","","","","","","","","","null","","690.2999999523163","","1","0","null","null","arrowup","[0.15,0.85,0.325,0.675]","","",""
"sailing-trial","415","1530509","0.0-11.0-380.0","","","","false","","","","","","","","","","485.7999999523163","","25","","0","0","arrowleft","0","arrowleft","[0.15,0.85,0.325,0.675]","","",""
"sailing-trial","416","1532962","0.0-11.0-381.0","","","","false","","","","","","","","","","null","","567","","1","1","null","null","arrowup","[0.15,0.85,0.325,0.675]","","",""
"sailing-trial","417","1536813","0.0-11.0-382.0","","","","false","","","","","","","","","","622","","431","","1","1","arrowleft","0","arrowright","[0.325,0.675,0.15,0.85]","","",""
"sailing-trial","418","1538819","0.0-11.0-383.0","","","","false","","","","","","","","","","null","","982.1999998092651","","2","0","null","null","arrowup","[0.325,0.675,0.15,0.85]","","",""
"sailing-trial","419","1542138","0.0-11.0-384.0","","","","false","","","","","","","","","","674.5999999046326","","52.40000009536743","","3","0","arrowright","1","arrowright","[0.325,0.675,0.15,0.85]","","",""
"sailing-trial","420","1544364","0.0-11.0-385.0","","","","false","","","","","","","","","","null","","648.5999999046326","","1","1","null","null","arrowup","[0.325,0.675,0.15,0.85]","","",""
"sailing-trial","421","1547318","0.0-11.0-386.0","","","","false","","","","","","","","","","107.89999985694885","","598.5999999046326","","1","0","arrowleft","0","arrowright","[0.325,0.675,0.15,0.85]","","",""
"sailing-trial","422","1549847","0.0-11.0-387.0","","","","false","","","","","","","","","","null","","920.9000000953674","","1","1","null","null","arrowup","[0.325,0.675,0.15,0.85]","","",""
"sailing-trial","423","1552976","0.0-11.0-388.0","","","","false","","","","","","","","","","92.69999980926514","","331.10000014305115","","1","0","arrowleft","0","arrowright","[0.325,0.675,0.15,0.85]","","",""
"sailing-trial","424","1555964","0.0-11.0-389.0","","","","false","","","","","","","","","","null","","995.7999999523163","","3","1","null","null","arrowup","[0.325,0.675,0.15,0.85]","","",""
"sailing-trial","425","1559246","0.0-11.0-390.0","","","","false","","","","","","","","","","88","","232.09999990463257","","3","1","arrowright","1","arrowright","[0.325,0.675,0.15,0.85]","","",""
"sailing-trial","426","1561447","0.0-11.0-391.0","","","","false","","","","","","","","","","null","","419.09999990463257","","0","1","null","null","arrowup","[0.325,0.675,0.15,0.85]","","",""
"sailing-trial","427","1565080","0.0-11.0-392.0","","","","false","","","","","","","","","","341.5","","536","","3","1","arrowright","1","arrowright","[0.325,0.675,0.15,0.85]","","",""
"sailing-trial","428","1567215","0.0-11.0-393.0","","","","false","","","","","","","","","","null","","800.1000001430511","","0","0","null","null","arrowup","[0.325,0.675,0.15,0.85]","","",""
"sailing-trial","429","1571313","0.0-11.0-394.0","","","","false","","","","","","","","","","592.2000000476837","","627.9000000953674","","3","1","arrowright","1","arrowright","[0.325,0.675,0.15,0.85]","","",""
"sailing-trial","430","1573417","0.0-11.0-395.0","","","","false","","","","","","","","","","null","","848","","2","0","null","null","arrowup","[0.325,0.675,0.15,0.85]","","",""
"sailing-trial","431","1577230","0.0-11.0-396.0","","","","false","","","","","","","","","","719.4000000953674","","69.09999990463257","","3","1","arrowright","1","arrowright","[0.325,0.675,0.15,0.85]","","",""
"sailing-trial","432","1580363","0.0-11.0-397.0","","","","false","","","","","","","","","","null","","1259.6000001430511","","3","1","null","null","arrowup","[0.325,0.675,0.15,0.85]","","",""
"sailing-trial","433","1584429","0.0-11.0-398.0","","","","false","","","","","","","","","","678.7000000476837","","427","","3","1","arrowright","1","arrowright","[0.325,0.675,0.15,0.85]","","",""
"sailing-trial","434","1586748","0.0-11.0-399.0","","","","false","","","","","","","","","","null","","960.5999999046326","","0","0","null","null","arrowup","[0.325,0.675,0.15,0.85]","","",""
"instructions","435","1589343","0.0-12.0","","","","","","","","","","2594.399999856949","","","","","","","","","","","","","","","","[{""page_index"":0,""viewing_time"":2591.899999856949}]"
"survey-debrief","436","1613960","0.0-13.0","","","","","","","","","","24611.799999952316","","","","","","","","","","","","","","{""difficulty"":""5"",""fun"":""2"",""clarity"":""5"",""strategy"":""keep track of the colors with treasure in the last turn and use that for the next turn"",""feedback"":""""}","",""
