"trial_type","trial_index","time_elapsed","internal_node_id","value","metadata","success","timeout","failed_images","failed_audio","failed_video","browser_interaction","low_quality","rt","stimulus","response","button_pressed","island_rt","island_response","boat_rt","boat_response","boat","reward","island_key","island","boat_key","reward_probabilities","responses","num_errors","view_history"
"pavlovia","0","7","0.0-0.0","","","","","","","","","","","","","","","","","","","","","","","","","",""
"call-function","1","8","0.0-1.0","","{""task_version"":""sailing_part1_v1"",""task_condition"":""good"",""boats"":[""D"",""C"",""B"",""A""],""boats_demo"":[""E"",""G"",""F"",""H""],""islands"":[""B"",""A""],""subject_id"":""14724"",""age"":""9"",""gender"":""Female""}","","","","","","","","","","","","","","","","","","","","","","","",""
"preload","2","15449","0.0-2.0","","","true","false","[]","[]","[]","[{""event"":""fullscreenenter"",""trial"":3,""time"":39812}]","false","","","","","","","","","","","","","","","","",""
"fullscreen","3","40754","0.0-3.0","","","true","","","","","","","","","","","","","","","","","","","","","","",""
"audio-keyboard-response","4","42471","0.0-4.0-0.0","","","","","","","","","","1013.3333333333334","audio/beep_loop.wav"," ","","","","","","","","","","","","","",""
"audio-test","5","52709","0.0-4.0-1.0","","","","","","","","","","null","audio/turtle.mp3","","3","","","","","","","","","","","","",""
"audio-test","6","57585","0.0-4.0-2.0","","","","","","","","[{""event"":""fullscreenenter"",""trial"":3,""time"":39812},{""event"":""blur"",""trial"":7,""time"":84927},{""event"":""focus"",""trial"":7,""time"":95103}]","false","null","audio/shark.mp3","","2","","","","","","","","","","","","",""
"sailing-instructions","7","108897","0.0-5.0-0.0-0.0","","","","","","","","","","","","","","null","null","null","null","null","null","","","","","","",""
"sailing-trial","8","114476","0.0-5.0-0.0-1.0-0.0","","","","false","","","","","","","","","","4407.900000035763","","null","","null","null","arrowleft","0","null","null","","",""
"sailing-trial","9","118219","0.0-5.0-0.0-1.0-1.0","","","","false","","","","","","","","","","2607.800000011921","","null","","null","null","arrowright","1","null","null","","",""
"sailing-trial","10","122767","0.0-5.0-0.0-1.0-2.0","","","","false","","","","","","","","","","3389.600000023842","","null","","null","null","arrowleft","0","null","null","","",""
"sailing-instructions","11","179729","0.0-5.0-0.0-2.0","","","","","","","","","","","","","","null","null","null","null","0","null","","","","","","",""
"sailing-trial","12","187156","0.0-5.0-0.0-3.0-0.0","","","","false","","","","","","","","","","null","","3657.399999976158","","2","1","null","null","arrowleft","[1,1,1,1]","","",""
"sailing-trial","13","191826","0.0-5.0-0.0-3.0-1.0","","","","false","","","","","","","","","","null","","1580","","3","1","null","null","arrowright","[1,1,1,1]","","",""
"sailing-trial","14","196454","0.0-5.0-0.0-3.0-2.0","","","","false","","","","","","","","","","null","","2855.800000011921","","3","0","null","null","arrowright","[0,0,0,0]","","",""
"sailing-instructions","15","205210","0.0-5.0-0.0-4.0","","","","","","","","","","","","","","null","null","null","null","null","null","","","","","","",""
"sailing-comprehension","16","233086","0.0-5.0-0.0-5.0","","","","","","","","","","21192.5","","","","","","","","","","","","","","[""true"",""false"",""false"",""true""]","1",""
"sailing-instructions","17","270066","0.0-5.0-0.1-0.1","","","","","","","","","","","","","","null","null","null","null","null","null","","","","","","",""
"sailing-trial","18","272786","0.0-5.0-0.1-1.1-0.1","","","","false","","","","","","","","","","1585.5","","null","","null","null","arrowleft","0","null","null","","",""
"sailing-trial","19","276119","0.0-5.0-0.1-1.1-1.1","","","","false","","","","","","","","","","2204.199999988079","","null","","null","null","arrowright","1","null","null","","",""
"sailing-trial","20","278546","0.0-5.0-0.1-1.1-2.1","","","","false","","","","","","","","","","1284.199999988079","","null","","null","null","arrowleft","0","null","null","","",""
"sailing-instructions","21","337147","0.0-5.0-0.1-2.1","","","","","","","","","","","","","","null","null","null","null","0","null","","","","","","",""
"sailing-trial","22","341686","0.0-5.0-0.1-3.1-0.1","","","","false","","","","","","","","","","null","","1501.2999999523163","","2","1","null","null","arrowleft","[1,1,1,1]","","",""
"sailing-trial","23","345127","0.0-5.0-0.1-3.1-1.1","","","","false","","","","","","","","","","null","","819","","3","1","null","null","arrowright","[1,1,1,1]","","",""
"sailing-trial","24","348304","0.0-5.0-0.1-3.1-2.1","","","","false","","","","","","","","","","null","","1278.699999988079","","2","0","null","null","arrowleft","[0,0,0,0]","","",""
"sailing-instructions","25","363527","0.0-5.0-0.1-4.1","","","","","","","","","","","","","","null","null","null","null","null","null","","","","","","",""
"sailing-comprehension","26","405833","0.0-5.0-0.1-5.1","","","","","","","","","","27571.200000047684","","","","","","","","","","","","","","[""true"",""false"",""false"",""true""]","1",""
"sailing-instructions","27","513723","0.0-6.0-0.0-0.0","","","","","","","","","","","","","","null","null","null","null","null","null","","","","","","",""
"sailing-comprehension","28","583228","0.0-6.0-0.0-1.0","","","","","","","","","","67169.30000001192","","","","","","","","","","","","","","[""true"",""false"",""true""]","0",""
"sailing-instructions","29","599112","0.0-7.0-0.0-0.0","","","","","","","","","","","","","","null","null","null","null","null","null","","","","","","",""
"sailing-trial","30","604773","0.0-7.0-0.0-1.0-0.0","","","","false","","","","","","","","","","null","","2603.5","","0","0","null","null","arrowup","[0.2,0.8,0.2,0.8]","","",""
"sailing-trial","31","608222","0.0-7.0-0.0-1.0-1.0","","","","false","","","","","","","","","","null","","1492","","1","0","null","null","arrowup","[0.2,0.8,0.2,0.8]","","",""
"sailing-trial","32","611263","0.0-7.0-0.0-1.0-2.0","","","","false","","","","","","","","","","null","","1009.8000000119209","","2","0","null","null","arrowup","[0.2,0.8,0.2,0.8]","","",""
"sailing-trial","33","615541","0.0-7.0-0.0-1.0-3.0","","","","false","","","","","","","","","","null","","2170.400000035763","","3","1","null","null","arrowup","[0.2,0.8,0.2,0.8]","","",""
"sailing-comprehension","34","638065","0.0-7.0-0.0-2.0","","","","","","","","","","20079.399999976158","","","","","","","","","","","","","","[""true""]","1",""
"sailing-instructions","35","656108","0.0-7.0-0.1-0.1","","","","","","","","","","","","","","null","null","null","null","null","null","","","","","","",""
"sailing-trial","36","660269","0.0-7.0-0.1-1.1-0.1","","","","false","","","","","","","","","","null","","1248.800000011921","","0","1","null","null","arrowup","[0.2,0.8,0.2,0.8]","","",""
"sailing-trial","37","664164","0.0-7.0-0.1-1.1-1.1","","","","false","","","","","","","","","","null","","1557.800000011921","","1","1","null","null","arrowup","[0.2,0.8,0.2,0.8]","","",""
"sailing-trial","38","667933","0.0-7.0-0.1-1.1-2.1","","","","false","","","","","","","","","","null","","1175","","2","0","null","null","arrowup","[0.2,0.8,0.2,0.8]","","",""
"sailing-trial","39","671367","0.0-7.0-0.1-1.1-3.1","","","","false","","","","","","","","","","null","","1155.699999988079","","3","1","null","null","arrowup","[0.2,0.8,0.2,0.8]","","",""
"sailing-comprehension","40","676570","0.0-7.0-0.1-2.1","","","","","","","","","","3658.5","","","","","","","","","","","","","","[""false""]","0",""
"sailing-instructions","41","688229","0.0-8.0-0.0-0.0","","","","","","","","","","","","","","null","null","null","null","null","null","","","","","","",""
"sailing-comprehension","42","693292","0.0-8.0-0.0-1.0","","","","","","","","","","3823","","","","","","","","","","","","","","[""true""]","0",""
"sailing-instructions","43","731467","0.0-9.0-0.0-0.0","","","","","","","","","","","","","","null","null","null","null","null","null","","","","","","",""
"sailing-trial","44","737704","0.0-9.0-0.0-1.0-0.0","","","","false","","","","","","","","","","1250.3999999761581","","1408.699999988079","","3","1","arrowright","1","arrowright","[0.2,0.8,0.2,0.8]","","",""
"sailing-trial","45","742946","0.0-9.0-0.0-1.0-1.0","","","","false","","","","","","","","","","740.4000000357628","","1174.5999999642372","","1","1","arrowleft","0","arrowright","[0.2,0.8,0.2,0.8]","","",""
"sailing-trial","46","746853","0.0-9.0-0.0-1.0-2.0","","","","false","","","","","","","","","","null","","1968.9000000357628","","0","0","null","null","arrowup","[0.2,0.8,0.2,0.8]","","",""
"sailing-trial","47","751288","0.0-9.0-0.0-1.0-3.0","","","","false","","","","","","","","","","1136.8999999761581","","846.2999999523163","","2","0","arrowright","1","arrowleft","[0.2,0.8,0.2,0.8]","","",""
"sailing-trial","48","755079","0.0-9.0-0.0-1.0-4.0","","","","false","","","","","","","","","","null","","1720.3999999761581","","3","1","null","null","arrowup","[0.2,0.8,0.2,0.8]","","",""
"sailing-trial","49","760582","0.0-9.0-0.0-1.0-5.0","","","","false","","","","","","","","","","589.6999999880791","","1060.5","","0","0","arrowleft","0","arrowleft","[0.2,0.8,0.2,0.8]","","",""
"sailing-instructions","50","791359","0.0-10.0","","","","","","","","","","","","","","null","null","null","null","null","null","","","","","","",""
"sailing-trial","51","796776","0.0-11.0-0.0","","","","false","","","","","","","","","","1528.6000000238419","","233.89999997615814","","1","1","arrowleft","0","arrowright","[0.15,0.85,0.675,0.325]","","",""
"sailing-trial","52","800514","0.0-11.0-1.0","","","","false","","","","","","","","","","null","","1737.2999999523163","","2","1","null","null","arrowup","[0.15,0.85,0.675,0.325]","","",""
"sailing-trial","53","805532","0.0-11.0-2.0","","","","false","","","","","","","","","","1263.5","","370.4000000357628","","3","1","arrowright","1","arrowright","[0.15,0.85,0.675,0.325]","","",""
"sailing-trial","54","809113","0.0-11.0-3.0","","","","false","","","","","","","","","","null","","1197.8999999761581","","3","0","null","null","arrowup","[0.15,0.85,0.675,0.325]","","",""
"sailing-trial","55","813441","0.0-11.0-4.0","","","","false","","","","","","","","","","846.3999999761581","","786.2000000476837","","0","0","arrowleft","0","arrowleft","[0.15,0.85,0.675,0.325]","","",""
"sailing-trial","56","816876","0.0-11.0-5.0","","","","false","","","","","","","","","","null","","1307","","2","1","null","null","arrowup","[0.15,0.85,0.675,0.325]","","",""
"sailing-trial","57","823224","0.0-11.0-6.0","","","","false","","","","","","","","","","1144","","1946.7000000476837","","2","1","arrowright","1","arrowleft","[0.15,0.85,0.675,0.325]","","",""
"sailing-trial","58","826729","0.0-11.0-7.0","","","","false","","","","","","","","","","null","","1222.199999988079","","0","0","null","null","arrowup","[0.15,0.85,0.675,0.325]","","",""
"sailing-trial","59","831233","0.0-11.0-8.0","","","","false","","","","","","","","","","1280.300000011921","","775.5999999642372","","2","0","arrowright","1","arrowleft","[0.15,0.85,0.675,0.325]","","",""
"sailing-trial","60","836319","0.0-11.0-9.0","","","","false","","","","","","","","","","null","","1173.4000000357628","","2","1","null","null","arrowup","[0.15,0.85,0.675,0.325]","","",""
"sailing-trial","61","843518","0.0-11.0-10.0","","","","false","","","","","","","","","","1480.7000000476837","","1617.0999999642372","","3","0","arrowright","1","arrowright","[0.15,0.85,0.675,0.325]","","",""
"sailing-trial","62","845920","0.0-11.0-11.0","","","","false","","","","","","","","","","null","","858.3999999761581","","1","0","null","null","arrowup","[0.15,0.85,0.675,0.325]","","",""
"sailing-trial","63","849970","0.0-11.0-12.0","","","","false","","","","","","","","","","1010.1999999880791","","548.4000000357628","","0","0","arrowleft","0","arrowleft","[0.15,0.85,0.675,0.325]","","",""
"sailing-trial","64","852978","0.0-11.0-13.0","","","","false","","","","","","","","","","null","","1358.199999988079","","3","0","null","null","arrowup","[0.15,0.85,0.675,0.325]","","",""
"sailing-trial","65","858528","0.0-11.0-14.0","","","","false","","","","","","","","","","1485.3999999761581","","1300.0999999642372","","2","1","arrowright","1","arrowleft","[0.15,0.85,0.675,0.325]","","",""
"sailing-trial","66","862731","0.0-11.0-15.0","","","","false","","","","","","","","","","null","","2224.899999976158","","1","1","null","null","arrowup","[0.15,0.85,0.675,0.325]","","",""
"sailing-trial","67","868156","0.0-11.0-16.0","","","","false","","","","","","","","","","1597.0999999642372","","496.5","","2","1","arrowright","1","arrowleft","[0.15,0.85,0.675,0.325]","","",""
"sailing-trial","68","873803","0.0-11.0-17.0","","","","false","","","","","","","","","","null","","1150.199999988079","","1","1","null","null","arrowup","[0.15,0.85,0.675,0.325]","","",""
"sailing-trial","69","879522","0.0-11.0-18.0","","","","false","","","","","","","","","","1589.1000000238419","","1557","","3","0","arrowright","1","arrowright","[0.325,0.675,0.85,0.15]","","",""
"sailing-trial","70","883901","0.0-11.0-19.0","","","","false","","","","","","","","","","null","","1343.8999999761581","","0","0","null","null","arrowup","[0.325,0.675,0.85,0.15]","","",""
"sailing-trial","71","889541","0.0-11.0-20.0","","","","false","","","","","","","","","","1150.8999999761581","","1506.699999988079","","1","1","arrowleft","0","arrowright","[0.325,0.675,0.85,0.15]","","",""
"sailing-trial","72","895227","0.0-11.0-21.0","","","","false","","","","","","","","","","null","","2292.800000011921","","1","1","null","null","arrowup","[0.325,0.675,0.85,0.15]","","",""
"sailing-trial","73","899846","0.0-11.0-22.0","","","","false","","","","","","","","","","1244.800000011921","","582.5","","1","1","arrowleft","0","arrowright","[0.325,0.675,0.85,0.15]","","",""
"sailing-trial","74","904052","0.0-11.0-23.0","","","","false","","","","","","","","","","null","","1143.3999999761581","","0","0","null","null","arrowup","[0.325,0.675,0.85,0.15]","","",""
"sailing-trial","75","908474","0.0-11.0-24.0","","","","false","","","","","","","","","","1101.699999988079","","516.5","","1","1","arrowleft","0","arrowright","[0.325,0.675,0.85,0.15]","","",""
"sailing-trial","76","912338","0.0-11.0-25.0","","","","false","","","","","","","","","","null","","1054.199999988079","","2","1","null","null","arrowup","[0.325,0.675,0.85,0.15]","","",""
"sailing-trial","77","916754","0.0-11.0-26.0","","","","false","","","","","","","","","","1625.800000011921","","493.5","","1","0","arrowleft","0","arrowright","[0.325,0.675,0.85,0.15]","","",""
"sailing-trial","78","921415","0.0-11.0-27.0","","","","false","","","","","","","","","","null","","1109.2999999523163","","2","1","null","null","arrowup","[0.325,0.675,0.85,0.15]","","",""
"sailing-trial","79","928643","0.0-11.0-28.0","","","","false","","","","","","","","","","1141","","2038.199999988079","","0","0","arrowleft","0","arrowleft","[0.325,0.675,0.85,0.15]","","",""
"sailing-trial","80","934133","0.0-11.0-29.0","","","","false","","","","","","","","","","null","","1338.5999999642372","","1","1","null","null","arrowup","[0.325,0.675,0.85,0.15]","","",""
"sailing-trial","81","938677","0.0-11.0-30.0","","","","false","","","","","","","","","","1080.5","","437.19999998807907","","2","1","arrowright","1","arrowleft","[0.325,0.675,0.85,0.15]","","",""
"sailing-trial","82","941990","0.0-11.0-31.0","","","","false","","","","","","","","","","null","","1610.0999999642372","","3","0","null","null","arrowup","[0.325,0.675,0.85,0.15]","","",""
"sailing-trial","83","947445","0.0-11.0-32.0","","","","false","","","","","","","","","","1135.3999999761581","","983.8000000119209","","0","1","arrowleft","0","arrowleft","[0.325,0.675,0.85,0.15]","","",""
"sailing-trial","84","950811","0.0-11.0-33.0","","","","false","","","","","","","","","","null","","1142.8999999761581","","3","0","null","null","arrowup","[0.325,0.675,0.85,0.15]","","",""
"sailing-trial","85","958243","0.0-11.0-34.0","","","","false","","","","","","","","","","4035.800000011921","","611.8999999761581","","2","1","arrowright","1","arrowleft","[0.15,0.85,0.675,0.325]","","",""
"sailing-trial","86","962189","0.0-11.0-35.0","","","","false","","","","","","","","","","null","","1505.699999988079","","1","1","null","null","arrowup","[0.15,0.85,0.675,0.325]","","",""
"sailing-trial","87","967897","0.0-11.0-36.0","","","","false","","","","","","","","","","1637.9000000357628","","782.5","","2","1","arrowright","1","arrowleft","[0.15,0.85,0.675,0.325]","","",""
"sailing-trial","88","970927","0.0-11.0-37.0","","","","false","","","","","","","","","","null","","1130.6000000238419","","0","0","null","null","arrowup","[0.15,0.85,0.675,0.325]","","",""
"sailing-trial","89","976164","0.0-11.0-38.0","","","","false","","","","","","","","","","931.1000000238419","","1558.4000000357628","","2","1","arrowright","1","arrowleft","[0.15,0.85,0.675,0.325]","","",""
"sailing-trial","90","979591","0.0-11.0-39.0","","","","false","","","","","","","","","","null","","1506","","0","1","null","null","arrowup","[0.15,0.85,0.675,0.325]","","",""
"sailing-trial","91","983580","0.0-11.0-40.0","","","","false","","","","","","","","","","617.6999999880791","","649.8999999761581","","1","1","arrowleft","0","arrowright","[0.15,0.85,0.675,0.325]","","",""
"sailing-trial","92","988016","0.0-11.0-41.0","","","","false","","","","","","","","","","null","","1379.800000011921","","0","0","null","null","arrowup","[0.15,0.85,0.675,0.325]","","",""
"sailing-trial","93","991917","0.0-11.0-42.0","","","","false","","","","","","","","","","579.3999999761581","","568.3000000119209","","0","1","arrowleft","0","arrowleft","[0.15,0.85,0.675,0.325]","","",""
"sailing-trial","94","994859","0.0-11.0-43.0","","","","false","","","","","","","","","","null","","1321.800000011921","","2","1","null","null","arrowup","[0.15,0.85,0.675,0.325]","","",""
"sailing-trial","95","999641","0.0-11.0-44.0","","","","false","","","","","","","","","","1558.800000011921","","642.8000000119209","","2","0","arrowright","1","arrowleft","[0.15,0.85,0.675,0.325]","","",""
"sailing-trial","96","1002740","0.0-11.0-45.0","","","","false","","","","","","","","","","null","","56.69999998807907","","0","0","null","null","arrowup","[0.15,0.85,0.675,0.325]","","",""
"sailing-trial","97","1007558","0.0-11.0-46.0","","","","false","","","","","","","","","","1570.800000011921","","966.5","","2","0","arrowright","1","arrowleft","[0.15,0.85,0.675,0.325]","","",""
"sailing-trial","98","1011086","0.0-11.0-47.0","","","","false","","","","","","","","","","null","","1210.5","","1","1","null","null","arrowup","[0.15,0.85,0.675,0.325]","","",""
"sailing-trial","99","1027969","0.0-11.0-48.0","","","","false","","","","","","","","","","6330.299999952316","","6478.899999976158","","0","0","arrowleft","0","arrowleft","[0.15,0.85,0.675,0.325]","","",""
"sailing-trial","100","1031946","0.0-11.0-49.0","","","","false","","","","","","","","","","null","","1403.199999988079","","2","0","null","null","arrowup","[0.15,0.85,0.675,0.325]","","",""
"sailing-trial","101","1037039","0.0-11.0-50.0","","","","false","","","","","","","","","","1592.300000011921","","330.60000002384186","","1","0","arrowleft","0","arrowright","[0.325,0.675,0.85,0.15]","","",""
"sailing-trial","102","1041446","0.0-11.0-51.0","","","","false","","","","","","","","","","null","","1357.4000000357628","","3","0","null","null","arrowup","[0.325,0.675,0.85,0.15]","","",""
"sailing-trial","103","1045304","0.0-11.0-52.0","","","","false","","","","","","","","","","646.6000000238419","","430.5","","1","1","arrowleft","0","arrowright","[0.325,0.675,0.85,0.15]","","",""
"sailing-trial","104","1048116","0.0-11.0-53.0","","","","false","","","","","","","","","","null","","1233.2999999523163","","3","0","null","null","arrowup","[0.325,0.675,0.85,0.15]","","",""
"sailing-trial","105","1054976","0.0-11.0-54.0","","","","false","","","","","","","","","","1230.0999999642372","","1551.1000000238419","","1","0","arrowleft","0","arrowright","[0.325,0.675,0.85,0.15]","","",""
"sailing-trial","106","1058864","0.0-11.0-55.0","","","","false","","","","","","","","","","null","","1318.4000000357628","","2","1","null","null","arrowup","[0.325,0.675,0.85,0.15]","","",""
"sailing-trial","107","1064400","0.0-11.0-56.0","","","","false","","","","","","","","","","2351.300000011921","","814.1999999880791","","3","0","arrowright","1","arrowright","[0.325,0.675,0.85,0.15]","","",""
"sailing-trial","108","1067167","0.0-11.0-57.0","","","","false","","","","","","","","","","null","","1209.699999988079","","0","0","null","null","arrowup","[0.325,0.675,0.85,0.15]","","",""
"sailing-trial","109","1071429","0.0-11.0-58.0","","","","false","","","","","","","","","","858","","139.79999995231628","","1","1","arrowleft","0","arrowright","[0.325,0.675,0.85,0.15]","","",""
"sailing-trial","110","1074734","0.0-11.0-59.0","","","","false","","","","","","","","","","null","","1319.5","","0","1","null","null","arrowup","[0.325,0.675,0.85,0.15]","","",""
"sailing-trial","111","1079754","0.0-11.0-60.0","","","","false","","","","","","","","","","1123.199999988079","","385.5999999642372","","1","1","arrowleft","0","arrowright","[0.325,0.675,0.85,0.15]","","",""
"sailing-trial","112","1083581","0.0-11.0-61.0","","","","false","","","","","","","","","","null","","1453.300000011921","","3","1","null","null","arrowup","[0.325,0.675,0.85,0.15]","","",""
"sailing-trial","113","1087998","0.0-11.0-62.0","","","","false","","","","","","","","","","1080.300000011921","","249","","0","1","arrowleft","0","arrowleft","[0.325,0.675,0.85,0.15]","","",""
"sailing-trial","114","1092257","0.0-11.0-63.0","","","","false","","","","","","","","","","null","","1547.800000011921","","1","1","null","null","arrowup","[0.325,0.675,0.85,0.15]","","",""
"sailing-trial","115","1098553","0.0-11.0-64.0","","","","false","","","","","","","","","","1440","","753.8000000119209","","1","0","arrowleft","0","arrowright","[0.325,0.675,0.85,0.15]","","",""
"sailing-trial","116","1103416","0.0-11.0-65.0","","","","false","","","","","","","","","","null","","1823.800000011921","","3","0","null","null","arrowup","[0.325,0.675,0.85,0.15]","","",""
"sailing-trial","117","1111797","0.0-11.0-66.0","","","","false","","","","","","","","","","3750.100000023842","","1213.4000000357628","","1","1","arrowleft","0","arrowright","[0.325,0.675,0.85,0.15]","","",""
"sailing-trial","118","1117095","0.0-11.0-67.0","","","","false","","","","","","","","","","null","","2169.900000035763","","1","1","null","null","arrowup","[0.325,0.675,0.85,0.15]","","",""
"sailing-trial","119","1123545","0.0-11.0-68.0","","","","false","","","","","","","","","","1547.7000000476837","","720.6000000238419","","2","0","arrowright","1","arrowleft","[0.325,0.675,0.85,0.15]","","",""
"sailing-trial","120","1129763","0.0-11.0-69.0","","","","false","","","","","","","","","","null","","3180.2000000476837","","3","0","null","null","arrowup","[0.325,0.675,0.85,0.15]","","",""
"sailing-trial","121","1138801","0.0-11.0-70.0","","","","false","","","","","","","","","","5204.5","","1014.3999999761581","","0","0","arrowleft","0","arrowleft","[0.15,0.85,0.675,0.325]","","",""
"sailing-trial","122","1143245","0.0-11.0-71.0","","","","false","","","","","","","","","","null","","2104.199999988079","","0","0","null","null","arrowup","[0.15,0.85,0.675,0.325]","","",""
"sailing-trial","123","1148111","0.0-11.0-72.0","","","","false","","","","","","","","","","1627.699999988079","","31.30000001192093","","1","1","arrowleft","0","arrowright","[0.15,0.85,0.675,0.325]","","",""
"sailing-trial","124","1152603","0.0-11.0-73.0","","","","false","","","","","","","","","","null","","1456.0999999642372","","2","0","null","null","arrowup","[0.15,0.85,0.675,0.325]","","",""
"sailing-trial","125","1158815","0.0-11.0-74.0","","","","false","","","","","","","","","","2207.900000035763","","353.4000000357628","","1","1","arrowleft","0","arrowright","[0.15,0.85,0.675,0.325]","","",""
"sailing-trial","126","1164134","0.0-11.0-75.0","","","","false","","","","","","","","","","null","","2277.900000035763","","2","0","null","null","arrowup","[0.15,0.85,0.675,0.325]","","",""
"sailing-trial","127","1168860","0.0-11.0-76.0","","","","false","","","","","","","","","","1374.3999999761581","","149","","1","1","arrowleft","0","arrowright","[0.15,0.85,0.675,0.325]","","",""
"sailing-trial","128","1173208","0.0-11.0-77.0","","","","false","","","","","","","","","","null","","1285.800000011921","","0","0","null","null","arrowup","[0.15,0.85,0.675,0.325]","","",""
"sailing-trial","129","1178122","0.0-11.0-78.0","","","","false","","","","","","","","","","1444.7000000476837","","70.09999996423721","","1","1","arrowleft","0","arrowright","[0.15,0.85,0.675,0.325]","","",""
"sailing-trial","130","1182513","0.0-11.0-79.0","","","","false","","","","","","","","","","null","","1344.300000011921","","0","0","null","null","arrowup","[0.15,0.85,0.675,0.325]","","",""
"sailing-trial","131","1188777","0.0-11.0-80.0","","","","false","","","","","","","","","","2254.7000000476837","","813.3000000119209","","1","1","arrowleft","0","arrowright","[0.15,0.85,0.675,0.325]","","",""
"sailing-trial","132","1192354","0.0-11.0-81.0","","","","false","","","","","","","","","","null","","1343.300000011921","","1","1","null","null","arrowup","[0.15,0.85,0.675,0.325]","","",""
"sailing-trial","133","1198262","0.0-11.0-82.0","","","","false","","","","","","","","","","1397.0999999642372","","1366.5999999642372","","1","1","arrowleft","0","arrowright","[0.15,0.85,0.675,0.325]","","",""
"sailing-trial","134","1202524","0.0-11.0-83.0","","","","false","","","","","","","","","","null","","1778.5999999642372","","2","1","null","null","arrowup","[0.15,0.85,0.675,0.325]","","",""
"sailing-trial","135","1207123","0.0-11.0-84.0","","","","false","","","","","","","","","","949.1999999880791","","74.59999996423721","","3","0","arrowright","1","arrowright","[0.15,0.85,0.675,0.325]","","",""
"sailing-trial","136","1210059","0.0-11.0-85.0","","","","false","","","","","","","","","","null","","1403.9000000357628","","0","0","null","null","arrowup","[0.15,0.85,0.675,0.325]","","",""
"sailing-trial","137","1213112","0.0-11.0-86.0","","","","false","","","","","","","","","","896.6999999880791","","50.69999998807907","","3","0","arrowright","1","arrowright","[0.675,0.325,0.15,0.85]","","",""
"sailing-trial","138","1217992","0.0-11.0-87.0","","","","false","","","","","","","","","","null","","1231.300000011921","","0","1","null","null","arrowup","[0.675,0.325,0.15,0.85]","","",""
"sailing-trial","139","1223166","0.0-11.0-88.0","","","","false","","","","","","","","","","1045.699999988079","","677.5","","1","1","arrowleft","0","arrowright","[0.675,0.325,0.15,0.85]","","",""
"sailing-trial","140","1228838","0.0-11.0-89.0","","","","false","","","","","","","","","","null","","2628.7000000476837","","1","0","null","null","arrowup","[0.675,0.325,0.15,0.85]","","",""
"sailing-trial","141","1235743","0.0-11.0-90.0","","","","false","","","","","","","","","","1652","","2012.5","","1","1","arrowleft","0","arrowright","[0.675,0.325,0.15,0.85]","","",""
"sailing-trial","142","1240520","0.0-11.0-91.0","","","","false","","","","","","","","","","null","","1733.8999999761581","","0","0","null","null","arrowup","[0.675,0.325,0.15,0.85]","","",""
"sailing-trial","143","1245592","0.0-11.0-92.0","","","","false","","","","","","","","","","2374.400000035763","","511.60000002384186","","1","0","arrowleft","0","arrowright","[0.675,0.325,0.15,0.85]","","",""
"sailing-trial","144","1249910","0.0-11.0-93.0","","","","false","","","","","","","","","","null","","1281.2999999523163","","2","0","null","null","arrowup","[0.675,0.325,0.15,0.85]","","",""
"sailing-trial","145","1255365","0.0-11.0-94.0","","","","false","","","","","","","","","","1460.800000011921","","945.8999999761581","","2","0","arrowright","1","arrowleft","[0.675,0.325,0.15,0.85]","","",""
"sailing-trial","146","1258478","0.0-11.0-95.0","","","","false","","","","","","","","","","null","","1436.1000000238419","","1","0","null","null","arrowup","[0.675,0.325,0.15,0.85]","","",""
"sailing-trial","147","1262825","0.0-11.0-96.0","","","","false","","","","","","","","","","683.6000000238419","","437.30000001192093","","1","0","arrowleft","0","arrowright","[0.675,0.325,0.15,0.85]","","",""
"sailing-trial","148","1265273","0.0-11.0-97.0","","","","false","","","","","","","","","","null","","1100.4000000357628","","2","0","null","null","arrowup","[0.675,0.325,0.15,0.85]","","",""
"sailing-trial","149","1269440","0.0-11.0-98.0","","","","false","","","","","","","","","","882.0999999642372","","366.39999997615814","","1","1","arrowleft","0","arrowright","[0.675,0.325,0.15,0.85]","","",""
"sailing-trial","150","1272070","0.0-11.0-99.0","","","","false","","","","","","","","","","null","","1150.5","","1","0","null","null","arrowup","[0.675,0.325,0.15,0.85]","","",""
"sailing-trial","151","1277138","0.0-11.0-100.0","","","","false","","","","","","","","","","1200.699999988079","","411.2000000476837","","1","0","arrowleft","0","arrowright","[0.675,0.325,0.15,0.85]","","",""
"sailing-trial","152","1281222","0.0-11.0-101.0","","","","false","","","","","","","","","","null","","1013.1000000238419","","2","0","null","null","arrowup","[0.675,0.325,0.15,0.85]","","",""
"sailing-trial","153","1285333","0.0-11.0-102.0","","","","false","","","","","","","","","","821.1999999880791","","28.400000035762787","","3","1","arrowright","1","arrowright","[0.675,0.325,0.15,0.85]","","",""
"sailing-trial","154","1289537","0.0-11.0-103.0","","","","false","","","","","","","","","","null","","1163.5999999642372","","3","0","null","null","arrowup","[0.675,0.325,0.15,0.85]","","",""
"sailing-trial","155","1294205","0.0-11.0-104.0","","","","false","","","","","","","","","","1296.800000011921","","305.89999997615814","","3","1","arrowright","1","arrowright","[0.675,0.325,0.15,0.85]","","",""
"sailing-trial","156","1296829","0.0-11.0-105.0","","","","false","","","","","","","","","","null","","1277.7999999523163","","1","0","null","null","arrowup","[0.675,0.325,0.15,0.85]","","",""
"sailing-trial","157","1302361","0.0-11.0-106.0","","","","false","","","","","","","","","","1454.5","","31.19999998807907","","1","0","arrowleft","0","arrowright","[0.85,0.15,0.325,0.675]","","",""
"sailing-trial","158","1306616","0.0-11.0-107.0","","","","false","","","","","","","","","","null","","1218.9000000357628","","3","0","null","null","arrowup","[0.85,0.15,0.325,0.675]","","",""
"sailing-trial","159","1312375","0.0-11.0-108.0","","","","false","","","","","","","","","","2118.2999999523163","","722","","3","0","arrowright","1","arrowright","[0.85,0.15,0.325,0.675]","","",""
"sailing-trial","160","1318088","0.0-11.0-109.0","","","","false","","","","","","","","","","null","","2679.199999988079","","1","0","null","null","arrowup","[0.85,0.15,0.325,0.675]","","",""
"sailing-trial","161","1323961","0.0-11.0-110.0","","","","false","","","","","","","","","","1192.2999999523163","","571","","1","0","arrowleft","0","arrowright","[0.85,0.15,0.325,0.675]","","",""
"sailing-trial","162","1327929","0.0-11.0-111.0","","","","false","","","","","","","","","","null","","1285.7999999523163","","0","1","null","null","arrowup","[0.85,0.15,0.325,0.675]","","",""
"sailing-trial","163","1332407","0.0-11.0-112.0","","","","false","","","","","","","","","","1035.300000011921","","420.30000001192093","","0","1","arrowleft","0","arrowleft","[0.85,0.15,0.325,0.675]","","",""
"sailing-trial","164","1336310","0.0-11.0-113.0","","","","false","","","","","","","","","","null","","1282","","2","1","null","null","arrowup","[0.85,0.15,0.325,0.675]","","",""
"sailing-trial","165","1341546","0.0-11.0-114.0","","","","false","","","","","","","","","","1551.2999999523163","","746.6000000238419","","0","1","arrowleft","0","arrowleft","[0.85,0.15,0.325,0.675]","","",""
"sailing-trial","166","1345706","0.0-11.0-115.0","","","","false","","","","","","","","","","null","","1235.0999999642372","","3","1","null","null","arrowup","[0.85,0.15,0.325,0.675]","","",""
"sailing-trial","167","1350284","0.0-11.0-116.0","","","","false","","","","","","","","","","1200.199999988079","","687","","2","0","arrowright","1","arrowleft","[0.85,0.15,0.325,0.675]","","",""
"sailing-trial","168","1353379","0.0-11.0-117.0","","","","false","","","","","","","","","","null","","1388.199999988079","","0","1","null","null","arrowup","[0.85,0.15,0.325,0.675]","","",""
"sailing-trial","169","1357947","0.0-11.0-118.0","","","","false","","","","","","","","","","859.5","","536.7000000476837","","2","1","arrowright","1","arrowleft","[0.85,0.15,0.325,0.675]","","",""
"sailing-trial","170","1361292","0.0-11.0-119.0","","","","false","","","","","","","","","","null","","1326.5","","1","0","null","null","arrowup","[0.85,0.15,0.325,0.675]","","",""
"sailing-trial","171","1366655","0.0-11.0-120.0","","","","false","","","","","","","","","","1050","","264.4000000357628","","2","0","arrowright","1","arrowleft","[0.85,0.15,0.325,0.675]","","",""
"sailing-trial","172","1369188","0.0-11.0-121.0","","","","false","","","","","","","","","","null","","1440","","2","0","null","null","arrowup","[0.85,0.15,0.325,0.675]","","",""
"sailing-trial","173","1373548","0.0-11.0-122.0","","","","false","","","","","","","","","","936.4000000357628","","531.8999999761581","","3","1","arrowright","1","arrowright","[0.85,0.15,0.325,0.675]","","",""
"sailing-trial","174","1377421","0.0-11.0-123.0","","","","false","","","","","","","","","","null","","1566.4000000357628","","2","0","null","null","arrowup","[0.85,0.15,0.325,0.675]","","",""
"sailing-trial","175","1382496","0.0-11.0-124.0","","","","false","","","","","","","","","","891.5","","93.5","","1","0","arrowleft","0","arrowright","[0.675,0.325,0.15,0.85]","","",""
"sailing-trial","176","1385986","0.0-11.0-125.0","","","","false","","","","","","","","","","null","","1146.199999988079","","0","1","null","null","arrowup","[0.675,0.325,0.15,0.85]","","",""
"sailing-trial","177","1390172","0.0-11.0-126.0","","","","false","","","","","","","","","","1121.699999988079","","15.900000035762787","","3","1","arrowright","1","arrowright","[0.675,0.325,0.15,0.85]","","",""
"sailing-trial","178","1394569","0.0-11.0-127.0","","","","false","","","","","","","","","","null","","1354.3999999761581","","1","0","null","null","arrowup","[0.675,0.325,0.15,0.85]","","",""
"sailing-trial","179","1401576","0.0-11.0-128.0","","","","false","","","","","","","","","","1563.199999988079","","1553.5","","1","0","arrowleft","0","arrowright","[0.675,0.325,0.15,0.85]","","",""
"sailing-trial","180","1406322","0.0-11.0-129.0","","","","false","","","","","","","","","","null","","1701.5999999642372","","0","0","null","null","arrowup","[0.675,0.325,0.15,0.85]","","",""
"sailing-trial","181","1414467","0.0-11.0-130.0","","","","false","","","","","","","","","","4052.2999999523163","","17.900000035762787","","1","0","arrowleft","0","arrowright","[0.675,0.325,0.15,0.85]","","",""
"sailing-trial","182","1419358","0.0-11.0-131.0","","","","false","","","","","","","","","","null","","1752.7999999523163","","2","1","null","null","arrowup","[0.675,0.325,0.15,0.85]","","",""
"sailing-trial","183","1426496","0.0-11.0-132.0","","","","false","","","","","","","","","","1551.800000011921","","1515.800000011921","","2","0","arrowright","1","arrowleft","[0.675,0.325,0.15,0.85]","","",""
"sailing-trial","184","1431028","0.0-11.0-133.0","","","","false","","","","","","","","","","null","","2089.100000023842","","3","1","null","null","arrowup","[0.675,0.325,0.15,0.85]","","",""
"sailing-trial","185","1436431","0.0-11.0-134.0","","","","false","","","","","","","","","","1887.4000000357628","","743","","3","0","arrowright","1","arrowright","[0.675,0.325,0.15,0.85]","","",""
"sailing-trial","186","1442477","0.0-11.0-135.0","","","","false","","","","","","","","","","null","","2982.5","","0","0","null","null","arrowup","[0.675,0.325,0.15,0.85]","","",""
"sailing-trial","187","1450722","0.0-11.0-136.0","","","","false","","","","","","","","","","2276.7000000476837","","1857.5999999642372","","2","0","arrowright","1","arrowleft","[0.675,0.325,0.15,0.85]","","",""
"sailing-trial","188","1455315","0.0-11.0-137.0","","","","false","","","","","","","","","","null","","1441.9000000357628","","3","1","null","null","arrowup","[0.675,0.325,0.15,0.85]","","",""
"sailing-trial","189","1461421","0.0-11.0-138.0","","","","false","","","","","","","","","","3148","","445","","2","0","arrowright","1","arrowleft","[0.675,0.325,0.15,0.85]","","",""
"sailing-trial","190","1464785","0.0-11.0-139.0","","","","false","","","","","","","","","","null","","1537.6000000238419","","3","0","null","null","arrowup","[0.675,0.325,0.15,0.85]","","",""
"sailing-trial","191","1474408","0.0-11.0-140.0","","","","false","","","","","","","","","","3748.899999976158","","598.3000000119209","","1","1","arrowleft","0","arrowright","[0.675,0.325,0.15,0.85]","","",""
"sailing-trial","192","1482098","0.0-11.0-141.0","","","","false","","","","","","","","","","null","","4591.199999988079","","1","1","null","null","arrowup","[0.675,0.325,0.15,0.85]","","",""
"sailing-trial","193","1489165","0.0-11.0-142.0","","","","false","","","","","","","","","","3886.800000011921","","391.7000000476837","","1","0","arrowleft","0","arrowright","[0.675,0.325,0.15,0.85]","","",""
"sailing-trial","194","1501166","0.0-11.0-143.0","","","","false","","","","","","","","","","null","","8941.300000011921","","0","0","null","null","arrowup","[0.675,0.325,0.15,0.85]","","",""
"sailing-trial","195","1509997","0.0-11.0-144.0","","","","false","","","","","","","","","","3788.899999976158","","2240.899999976158","","0","0","arrowleft","0","arrowleft","[0.325,0.675,0.85,0.15]","","",""
"sailing-trial","196","1515134","0.0-11.0-145.0","","","","false","","","","","","","","","","null","","2084.399999976158","","0","0","null","null","arrowup","[0.325,0.675,0.85,0.15]","","",""
"sailing-trial","197","1523313","0.0-11.0-146.0","","","","false","","","","","","","","","","3421","","947.6000000238419","","3","1","arrowright","1","arrowright","[0.325,0.675,0.85,0.15]","","",""
"sailing-trial","198","1527904","0.0-11.0-147.0","","","","false","","","","","","","","","","null","","1616.3999999761581","","3","0","null","null","arrowup","[0.325,0.675,0.85,0.15]","","",""
"sailing-trial","199","1532579","0.0-11.0-148.0","","","","false","","","","","","","","","","1452.5","","860","","1","0","arrowleft","0","arrowright","[0.325,0.675,0.85,0.15]","","",""
"sailing-trial","200","1536772","0.0-11.0-149.0","","","","false","","","","","","","","","","null","","1151.5","","1","0","null","null","arrowup","[0.325,0.675,0.85,0.15]","","",""
"sailing-trial","201","1542140","0.0-11.0-150.0","","","","false","","","","","","","","","","967.4000000357628","","746.7000000476837","","0","1","arrowleft","0","arrowleft","[0.325,0.675,0.85,0.15]","","",""
"sailing-trial","202","1549057","0.0-11.0-151.0","","","","false","","","","","","","","","","null","","3854.7999999523163","","3","0","null","null","arrowup","[0.325,0.675,0.85,0.15]","","",""
"sailing-trial","203","1562445","0.0-11.0-152.0","","","","false","","","","","","","","","","5079.699999988079","","4237","","1","0","arrowleft","0","arrowright","[0.325,0.675,0.85,0.15]","","",""
"sailing-trial","204","1566854","0.0-11.0-153.0","","","","false","","","","","","","","","","null","","1373.5","","2","0","null","null","arrowup","[0.325,0.675,0.85,0.15]","","",""
"sailing-trial","205","1573803","0.0-11.0-154.0","","","","false","","","","","","","","","","2664","","481.9000000357628","","1","1","arrowleft","0","arrowright","[0.325,0.675,0.85,0.15]","","",""
"sailing-trial","206","1581452","0.0-11.0-155.0","","","","false","","","","","","","","","","null","","3730.900000035763","","2","1","null","null","arrowup","[0.325,0.675,0.85,0.15]","","",""
"sailing-trial","207","1592386","0.0-11.0-156.0","","","","false","","","","","","","","","","6287.300000011921","","662.1000000238419","","1","1","arrowleft","0","arrowright","[0.325,0.675,0.85,0.15]","","",""
"sailing-trial","208","1598389","0.0-11.0-157.0","","","","false","","","","","","","","","","null","","2940.800000011921","","0","0","null","null","arrowup","[0.325,0.675,0.85,0.15]","","",""
"sailing-trial","209","1603882","0.0-11.0-158.0","","","","false","","","","","","","","","","1448","","749.2000000476837","","1","1","arrowleft","0","arrowright","[0.325,0.675,0.85,0.15]","","",""
"sailing-trial","210","1608079","0.0-11.0-159.0","","","","false","","","","","","","","","","null","","2577.7999999523163","","2","0","null","null","arrowup","[0.325,0.675,0.85,0.15]","","",""
"sailing-trial","211","1611855","0.0-11.0-160.0","","","","false","","","","","","","","","","1095.8999999761581","","100.60000002384186","","1","0","arrowleft","0","arrowright","[0.675,0.325,0.15,0.85]","","",""
"sailing-trial","212","1615624","0.0-11.0-161.0","","","","false","","","","","","","","","","null","","1196.8999999761581","","0","1","null","null","arrowup","[0.675,0.325,0.15,0.85]","","",""
"sailing-trial","213","1619572","0.0-11.0-162.0","","","","false","","","","","","","","","","791","","455.9000000357628","","2","0","arrowright","1","arrowleft","[0.675,0.325,0.15,0.85]","","",""
"sailing-trial","214","1624001","0.0-11.0-163.0","","","","false","","","","","","","","","","null","","1427.1000000238419","","0","1","null","null","arrowup","[0.675,0.325,0.15,0.85]","","",""
"sailing-trial","215","1629182","0.0-11.0-164.0","","","","false","","","","","","","","","","1270.300000011921","","1237.199999988079","","2","0","arrowright","1","arrowleft","[0.675,0.325,0.15,0.85]","","",""
"sailing-trial","216","1632656","0.0-11.0-165.0","","","","false","","","","","","","","","","null","","1285","","0","1","null","null","arrowup","[0.675,0.325,0.15,0.85]","","",""
"sailing-trial","217","1637316","0.0-11.0-166.0","","","","false","","","","","","","","","","1081.8999999761581","","505.4000000357628","","1","0","arrowleft","0","arrowright","[0.675,0.325,0.15,0.85]","","",""
"sailing-trial","218","1641310","0.0-11.0-167.0","","","","false","","","","[{""event"":""fullscreenenter"",""trial"":3,""time"":39812},{""event"":""blur"",""trial"":7,""time"":84927},{""event"":""focus"",""trial"":7,""time"":95103},{""event"":""blur"",""trial"":219,""time"":1644381},{""event"":""focus"",""trial"":219,""time"":1646864}]","true","","","","","null","","1389.8999999761581","","3","1","null","null","arrowup","[0.675,0.325,0.15,0.85]","","",""
"sailing-trial","219","1649019","0.0-11.0-168.0","","","","false","","","","","","","","","","827.0999999642372","","731.1999999880791","","0","1","arrowleft","0","arrowleft","[0.675,0.325,0.15,0.85]","","",""
"sailing-trial","220","1653562","0.0-11.0-169.0","","","","false","","","","","","","","","","null","","2125.099999964237","","3","0","null","null","arrowup","[0.675,0.325,0.15,0.85]","","",""
"sailing-trial","221","1658515","0.0-11.0-170.0","","","","false","","","","","","","","","","2130.699999988079","","199.4000000357628","","0","0","arrowleft","0","arrowleft","[0.675,0.325,0.15,0.85]","","",""
"sailing-trial","222","1662681","0.0-11.0-171.0","","","","false","","","","","","","","","","null","","2580.2000000476837","","1","0","null","null","arrowup","[0.675,0.325,0.15,0.85]","","",""
"sailing-trial","223","1669187","0.0-11.0-172.0","","","","false","","","","","","","","","","1234.199999988079","","2485.5","","3","0","arrowright","1","arrowright","[0.675,0.325,0.15,0.85]","","",""
"sailing-trial","224","1671981","0.0-11.0-173.0","","","","false","","","","","","","","","","null","","1159.5","","1","0","null","null","arrowup","[0.675,0.325,0.15,0.85]","","",""
"sailing-trial","225","1675680","0.0-11.0-174.0","","","","false","","","","","","","","","","1352.3999999761581","","29.600000023841858","","1","0","arrowleft","0","arrowright","[0.675,0.325,0.15,0.85]","","",""
"sailing-trial","226","1678336","0.0-11.0-175.0","","","","false","","","","","","","","","","null","","1475.199999988079","","1","0","null","null","arrowup","[0.675,0.325,0.15,0.85]","","",""
"sailing-trial","227","1682658","0.0-11.0-176.0","","","","false","","","","","","","","","","1061.5","","56.60000002384186","","0","1","arrowleft","0","arrowleft","[0.675,0.325,0.15,0.85]","","",""
"sailing-trial","228","1686918","0.0-11.0-177.0","","","","false","","","","","","","","","","null","","1191.699999988079","","2","0","null","null","arrowup","[0.675,0.325,0.15,0.85]","","",""
"sailing-trial","229","1691642","0.0-11.0-178.0","","","","false","","","","","","","","","","938.6000000238419","","183.4000000357628","","3","1","arrowright","1","arrowright","[0.85,0.15,0.325,0.675]","","",""
"sailing-trial","230","1695236","0.0-11.0-179.0","","","","false","","","","","","","","","","null","","1183.5999999642372","","3","1","null","null","arrowup","[0.85,0.15,0.325,0.675]","","",""
"sailing-trial","231","1700379","0.0-11.0-180.0","","","","false","","","","","","","","","","1471.199999988079","","784.9000000357628","","0","1","arrowleft","0","arrowleft","[0.85,0.15,0.325,0.675]","","",""
"sailing-trial","232","1703581","0.0-11.0-181.0","","","","false","","","","","","","","","","null","","1165.4000000357628","","0","1","null","null","arrowup","[0.85,0.15,0.325,0.675]","","",""
"sailing-trial","233","1708685","0.0-11.0-182.0","","","","false","","","","","","","","","","1540.3999999761581","","588.5","","0","1","arrowleft","0","arrowleft","[0.85,0.15,0.325,0.675]","","",""
"sailing-trial","234","1712774","0.0-11.0-183.0","","","","false","","","","","","","","","","null","","1056.199999988079","","2","0","null","null","arrowup","[0.85,0.15,0.325,0.675]","","",""
"sailing-trial","235","1719687","0.0-11.0-184.0","","","","false","","","","","","","","","","1179.300000011921","","507.19999998807907","","0","1","arrowleft","0","arrowleft","[0.85,0.15,0.325,0.675]","","",""
"sailing-trial","236","1723651","0.0-11.0-185.0","","","","false","","","","","","","","","","null","","1601.0999999642372","","0","1","null","null","arrowup","[0.85,0.15,0.325,0.675]","","",""
"sailing-trial","237","1729721","0.0-11.0-186.0","","","","false","","","","","","","","","","1415.9000000357628","","605.3999999761581","","0","0","arrowleft","0","arrowleft","[0.85,0.15,0.325,0.675]","","",""
"sailing-trial","238","1733702","0.0-11.0-187.0","","","","false","","","","","","","","","","null","","1595.6000000238419","","3","1","null","null","arrowup","[0.85,0.15,0.325,0.675]","","",""
"sailing-trial","239","1738898","0.0-11.0-188.0","","","","false","","","","","","","","","","815.8999999761581","","856.3999999761581","","3","1","arrowright","1","arrowright","[0.85,0.15,0.325,0.675]","","",""
"sailing-trial","240","1743086","0.0-11.0-189.0","","","","false","","","","","","","","","","null","","1153.8999999761581","","3","0","null","null","arrowup","[0.85,0.15,0.325,0.675]","","",""
"sailing-trial","241","1747917","0.0-11.0-190.0","","","","false","","","","","","","","","","945.1999999880791","","45.5","","3","1","arrowright","1","arrowright","[0.85,0.15,0.325,0.675]","","",""
"sailing-trial","242","1751449","0.0-11.0-191.0","","","","false","","","","","","","","","","null","","1353.800000011921","","0","1","null","null","arrowup","[0.85,0.15,0.325,0.675]","","",""
"sailing-trial","243","1758299","0.0-11.0-192.0","","","","false","","","","","","","","","","2621.699999988079","","692","","0","1","arrowleft","0","arrowleft","[0.85,0.15,0.325,0.675]","","",""
"sailing-trial","244","1761347","0.0-11.0-193.0","","","","false","","","","","","","","","","null","","1194.5","","3","0","null","null","arrowup","[0.85,0.15,0.325,0.675]","","",""
"sailing-trial","245","1764910","0.0-11.0-194.0","","","","false","","","","","","","","","","713.6999999880791","","175.9000000357628","","1","0","arrowleft","0","arrowright","[0.85,0.15,0.325,0.675]","","",""
"sailing-trial","246","1768170","0.0-11.0-195.0","","","","false","","","","","","","","","","null","","1203.5","","2","1","null","null","arrowup","[0.85,0.15,0.325,0.675]","","",""
"sailing-trial","247","1772466","0.0-11.0-196.0","","","","false","","","","","","","","","","1186.699999988079","","565.4000000357628","","2","0","arrowright","1","arrowleft","[0.85,0.15,0.325,0.675]","","",""
"sailing-trial","248","1775168","0.0-11.0-197.0","","","","false","","","","","","","","","","null","","1192.6000000238419","","1","0","null","null","arrowup","[0.85,0.15,0.325,0.675]","","",""
"sailing-trial","249","1779637","0.0-11.0-198.0","","","","false","","","","","","","","","","558.2999999523163","","707.1999999880791","","0","1","arrowleft","0","arrowleft","[0.325,0.675,0.85,0.15]","","",""
"sailing-trial","250","1784126","0.0-11.0-199.0","","","","false","","","","","","","","","","null","","1442.699999988079","","3","0","null","null","arrowup","[0.325,0.675,0.85,0.15]","","",""
"sailing-trial","251","1791780","0.0-11.0-200.0","","","","false","","","","","","","","","","2402.699999988079","","1163.0999999642372","","0","0","arrowleft","0","arrowleft","[0.325,0.675,0.85,0.15]","","",""
"sailing-trial","252","1797059","0.0-11.0-201.0","","","","false","","","","","","","","","","null","","1274.199999988079","","2","1","null","null","arrowup","[0.325,0.675,0.85,0.15]","","",""
"sailing-trial","253","1803427","0.0-11.0-202.0","","","","false","","","","","","","","","","2183.599999964237","","68.89999997615814","","0","0","arrowleft","0","arrowleft","[0.325,0.675,0.85,0.15]","","",""
"sailing-trial","254","1807723","0.0-11.0-203.0","","","","false","","","","","","","","","","null","","1259.6000000238419","","0","0","null","null","arrowup","[0.325,0.675,0.85,0.15]","","",""
"sailing-trial","255","1813195","0.0-11.0-204.0","","","","false","","","","","","","","","","918.1999999880791","","506.2999999523163","","3","0","arrowright","1","arrowright","[0.325,0.675,0.85,0.15]","","",""
"sailing-trial","256","1817224","0.0-11.0-205.0","","","","false","","","","","","","","","","null","","973.3999999761581","","1","0","null","null","arrowup","[0.325,0.675,0.85,0.15]","","",""
"sailing-trial","257","1823491","0.0-11.0-206.0","","","","false","","","","","","","","","","3401.599999964237","","21.899999976158142","","0","0","arrowleft","0","arrowleft","[0.325,0.675,0.85,0.15]","","",""
"sailing-trial","258","1826246","0.0-11.0-207.0","","","","false","","","","","","","","","","null","","1042","","0","0","null","null","arrowup","[0.325,0.675,0.85,0.15]","","",""
"sailing-trial","259","1830923","0.0-11.0-208.0","","","","false","","","","","","","","","","1100.9000000357628","","200.60000002384186","","2","1","arrowright","1","arrowleft","[0.325,0.675,0.85,0.15]","","",""
"sailing-trial","260","1834677","0.0-11.0-209.0","","","","false","","","","","","","","","","null","","1138.6000000238419","","0","1","null","null","arrowup","[0.325,0.675,0.85,0.15]","","",""
"sailing-trial","261","1839452","0.0-11.0-210.0","","","","false","","","","","","","","","","1217.8999999761581","","305.19999998807907","","2","0","arrowright","1","arrowleft","[0.325,0.675,0.85,0.15]","","",""
"sailing-trial","262","1842695","0.0-11.0-211.0","","","","false","","","","","","","","","","null","","1554.300000011921","","0","0","null","null","arrowup","[0.325,0.675,0.85,0.15]","","",""
"sailing-trial","263","1848223","0.0-11.0-212.0","","","","false","","","","","","","","","","1055.199999988079","","1866.1000000238419","","0","1","arrowleft","0","arrowleft","[0.325,0.675,0.85,0.15]","","",""
"sailing-trial","264","1851134","0.0-11.0-213.0","","","","false","","","","","","","","","","null","","1211.5","","3","0","null","null","arrowup","[0.325,0.675,0.85,0.15]","","",""
"sailing-trial","265","1855982","0.0-11.0-214.0","","","","false","","","","","","","","","","1561.800000011921","","20.5","","1","1","arrowleft","0","arrowright","[0.325,0.675,0.85,0.15]","","",""
"sailing-trial","266","1861907","0.0-11.0-215.0","","","","false","","","","","","","","","","null","","3315.7000000476837","","2","1","null","null","arrowup","[0.325,0.675,0.85,0.15]","","",""
"sailing-trial","267","1868799","0.0-11.0-216.0","","","","false","","","","","","","","","","1326.5","","1541.699999988079","","1","1","arrowleft","0","arrowright","[0.325,0.675,0.85,0.15]","","",""
"sailing-trial","268","1873118","0.0-11.0-217.0","","","","false","","","","","","","","","","null","","1283","","3","0","null","null","arrowup","[0.325,0.675,0.85,0.15]","","",""
"sailing-trial","269","1880043","0.0-11.0-218.0","","","","false","","","","","","","","","","1221.0999999642372","","1599.7000000476837","","1","0","arrowleft","0","arrowright","[0.325,0.675,0.85,0.15]","","",""
"sailing-trial","270","1883695","0.0-11.0-219.0","","","","false","","","","","","","","","","null","","1414.1000000238419","","2","1","null","null","arrowup","[0.325,0.675,0.85,0.15]","","",""
"sailing-trial","271","1889497","0.0-11.0-220.0","","","","false","","","","","","","","","","1140.7000000476837","","578.3999999761581","","0","0","arrowleft","0","arrowleft","[0.15,0.85,0.675,0.325]","","",""
"sailing-trial","272","1893792","0.0-11.0-221.0","","","","false","","","","","","","","","","null","","1251.2000000476837","","0","0","null","null","arrowup","[0.15,0.85,0.675,0.325]","","",""
"sailing-trial","273","1902774","0.0-11.0-222.0","","","","false","","","","","","","","","","5031.899999976158","","677.6000000238419","","0","0","arrowleft","0","arrowleft","[0.15,0.85,0.675,0.325]","","",""
"sailing-trial","274","1912108","0.0-11.0-223.0","","","","false","","","","","","","","","","null","","6273.799999952316","","2","0","null","null","arrowup","[0.15,0.85,0.675,0.325]","","",""
"sailing-trial","275","1916717","0.0-11.0-224.0","","","","false","","","","","","","","","","1339.4000000357628","","76.10000002384186","","0","1","arrowleft","0","arrowleft","[0.15,0.85,0.675,0.325]","","",""
"sailing-trial","276","1919151","0.0-11.0-225.0","","","","false","","","","","","","","","","null","","1052.699999988079","","2","0","null","null","arrowup","[0.15,0.85,0.675,0.325]","","",""
"sailing-trial","277","1923396","0.0-11.0-226.0","","","","false","","","","","","","","","","1197","","304.7000000476837","","0","0","arrowleft","0","arrowleft","[0.15,0.85,0.675,0.325]","","",""
"sailing-trial","278","1927372","0.0-11.0-227.0","","","","false","","","","","","","","","","null","","1684.7999999523163","","2","1","null","null","arrowup","[0.15,0.85,0.675,0.325]","","",""
"sailing-trial","279","1932856","0.0-11.0-228.0","","","","false","","","","","","","","","","1010.4000000357628","","817.6999999880791","","3","1","arrowright","1","arrowright","[0.15,0.85,0.675,0.325]","","",""
"sailing-trial","280","1935522","0.0-11.0-229.0","","","","false","","","","","","","","","","null","","1198.3999999761581","","1","0","null","null","arrowup","[0.15,0.85,0.675,0.325]","","",""
"sailing-trial","281","1941320","0.0-11.0-230.0","","","","false","","","","","","","","","","2568.899999976158","","680.1000000238419","","0","0","arrowleft","0","arrowleft","[0.15,0.85,0.675,0.325]","","",""
"sailing-trial","282","1944907","0.0-11.0-231.0","","","","false","","","","","","","","","","null","","1483","","2","0","null","null","arrowup","[0.15,0.85,0.675,0.325]","","",""
"sailing-trial","283","1951407","0.0-11.0-232.0","","","","false","","","","","","","","","","2789","","520.0999999642372","","1","1","arrowleft","0","arrowright","[0.15,0.85,0.675,0.325]","","",""
"sailing-trial","284","1954967","0.0-11.0-233.0","","","","false","","","","","","","","","","null","","1279","","1","1","null","null","arrowup","[0.15,0.85,0.675,0.325]","","",""
"sailing-trial","285","1959894","0.0-11.0-234.0","","","","false","","","","","","","","","","1218.8999999761581","","745.5","","1","1","arrowleft","0","arrowright","[0.15,0.85,0.675,0.325]","","",""
"sailing-trial","286","1962591","0.0-11.0-235.0","","","","false","","","","","","","","","","null","","1133.4000000357628","","3","0","null","null","arrowup","[0.15,0.85,0.675,0.325]","","",""
"sailing-trial","287","1966235","0.0-11.0-236.0","","","","false","","","","","","","","","","958.2999999523163","","38.10000002384186","","1","1","arrowleft","0","arrowright","[0.15,0.85,0.675,0.325]","","",""
"sailing-trial","288","1970615","0.0-11.0-237.0","","","","false","","","","","","","","","","null","","1311","","0","0","null","null","arrowup","[0.15,0.85,0.675,0.325]","","",""
"sailing-trial","289","1974982","0.0-11.0-238.0","","","","false","","","","","","","","","","1170","","441","","3","0","arrowright","1","arrowright","[0.325,0.675,0.85,0.15]","","",""
"sailing-trial","290","1978803","0.0-11.0-239.0","","","","false","","","","","","","","","","null","","1322.7999999523163","","3","0","null","null","arrowup","[0.325,0.675,0.85,0.15]","","",""
"sailing-trial","291","1986180","0.0-11.0-240.0","","","","false","","","","","","","","","","2220.2000000476837","","925.8000000119209","","1","1","arrowleft","0","arrowright","[0.325,0.675,0.85,0.15]","","",""
"sailing-trial","292","1992259","0.0-11.0-241.0","","","","false","","","","","","","","","","null","","1793.4000000357628","","2","1","null","null","arrowup","[0.325,0.675,0.85,0.15]","","",""
"sailing-trial","293","2006672","0.0-11.0-242.0","","","","false","","","","","","","","","","7779.299999952316","","829.1999999880791","","1","1","arrowleft","0","arrowright","[0.325,0.675,0.85,0.15]","","",""
"sailing-trial","294","2014245","0.0-11.0-243.0","","","","false","","","","","","","","","","null","","2718.699999988079","","1","1","null","null","arrowup","[0.325,0.675,0.85,0.15]","","",""
"sailing-trial","295","2030785","0.0-11.0-244.0","","","","false","","","","","","","","","","6244.799999952316","","6214.900000035763","","1","0","arrowleft","0","arrowright","[0.325,0.675,0.85,0.15]","","",""
"sailing-trial","296","2036146","0.0-11.0-245.0","","","","false","","","","","","","","","","null","","2329","","0","0","null","null","arrowup","[0.325,0.675,0.85,0.15]","","",""
"sailing-trial","297","2041394","0.0-11.0-246.0","","","","false","","","","","","","","","","1567.1000000238419","","1177.300000011921","","1","0","arrowleft","0","arrowright","[0.325,0.675,0.85,0.15]","","",""
"sailing-trial","298","2047946","0.0-11.0-247.0","","","","false","","","","","","","","","","null","","3517","","3","0","null","null","arrowup","[0.325,0.675,0.85,0.15]","","",""
"sailing-trial","299","2055360","0.0-11.0-248.0","","","","false","","","","","","","","","","2096.300000011921","","1908.8999999761581","","1","1","arrowleft","0","arrowright","[0.325,0.675,0.85,0.15]","","",""
"sailing-trial","300","2059876","0.0-11.0-249.0","","","","false","","","","","","","","","","null","","1490.800000011921","","3","0","null","null","arrowup","[0.325,0.675,0.85,0.15]","","",""
"sailing-trial","301","2066768","0.0-11.0-250.0","","","","false","","","","","","","","","","1570.9000000357628","","1489.800000011921","","1","1","arrowleft","0","arrowright","[0.325,0.675,0.85,0.15]","","",""
"sailing-trial","302","2079087","0.0-11.0-251.0","","","","false","","","","","","","","","","null","","9276.199999988079","","1","0","null","null","arrowup","[0.325,0.675,0.85,0.15]","","",""
"sailing-trial","303","2090760","0.0-11.0-252.0","","","","false","","","","","","","","","","2003.0999999642372","","6524.800000011921","","1","1","arrowleft","0","arrowright","[0.325,0.675,0.85,0.15]","","",""
"sailing-trial","304","2094973","0.0-11.0-253.0","","","","false","","","","","","","","","","null","","2115.399999976158","","3","1","null","null","arrowup","[0.325,0.675,0.85,0.15]","","",""
"sailing-trial","305","2099491","0.0-11.0-254.0","","","","false","","","","","","","","","","1638.3999999761581","","140.70000004768372","","2","0","arrowright","1","arrowleft","[0.325,0.675,0.85,0.15]","","",""
"sailing-trial","306","2104372","0.0-11.0-255.0","","","","false","","","","","","","","","","null","","1835.3999999761581","","3","0","null","null","arrowup","[0.325,0.675,0.85,0.15]","","",""
"sailing-trial","307","2112318","0.0-11.0-256.0","","","","false","","","","","","","","","","993.1999999880791","","1259","","1","1","arrowleft","0","arrowright","[0.325,0.675,0.85,0.15]","","",""
"sailing-trial","308","2120443","0.0-11.0-257.0","","","","false","","","","","","","","","","null","","2412.199999988079","","2","1","null","null","arrowup","[0.325,0.675,0.85,0.15]","","",""
"sailing-trial","309","2128469","0.0-11.0-258.0","","","","false","","","","","","","","","","2907.100000023842","","707.7999999523163","","1","1","arrowleft","0","arrowright","[0.325,0.675,0.85,0.15]","","",""
"sailing-trial","310","2134943","0.0-11.0-259.0","","","","false","","","","","","","","","","null","","3424.599999964237","","3","0","null","null","arrowup","[0.325,0.675,0.85,0.15]","","",""
"sailing-trial","311","2141034","0.0-11.0-260.0","","","","false","","","","","","","","","","2533","","407.89999997615814","","1","0","arrowleft","0","arrowright","[0.325,0.675,0.85,0.15]","","",""
"sailing-trial","312","2144866","0.0-11.0-261.0","","","","false","","","","","","","","","","null","","1390.3999999761581","","1","1","null","null","arrowup","[0.325,0.675,0.85,0.15]","","",""
"sailing-trial","313","2149817","0.0-11.0-262.0","","","","false","","","","","","","","","","933.3999999761581","","329.5","","0","1","arrowleft","0","arrowleft","[0.675,0.325,0.15,0.85]","","",""
"sailing-trial","314","2153853","0.0-11.0-263.0","","","","false","","","","","","","","","","null","","1739.800000011921","","0","1","null","null","arrowup","[0.675,0.325,0.15,0.85]","","",""
"sailing-trial","315","2156994","0.0-11.0-264.0","","","","false","","","","","","","","","","654.5","","218.60000002384186","","0","0","arrowleft","0","arrowleft","[0.675,0.325,0.15,0.85]","","",""
"sailing-trial","316","2160798","0.0-11.0-265.0","","","","false","","","","","","","","","","null","","1249","","3","1","null","null","arrowup","[0.675,0.325,0.15,0.85]","","",""
"sailing-trial","317","2164453","0.0-11.0-266.0","","","","false","","","","","","","","","","631.9000000357628","","126.39999997615814","","3","0","arrowright","1","arrowright","[0.675,0.325,0.15,0.85]","","",""
"sailing-trial","318","2166961","0.0-11.0-267.0","","","","false","","","","","","","","","","null","","1168.1000000238419","","2","0","null","null","arrowup","[0.675,0.325,0.15,0.85]","","",""
"sailing-trial","319","2172072","0.0-11.0-268.0","","","","false","","","","","","","","","","1794.300000011921","","607.6000000238419","","1","0","arrowleft","0","arrowright","[0.675,0.325,0.15,0.85]","","",""
"sailing-trial","320","2175954","0.0-11.0-269.0","","","","false","","","","","","","","","","null","","1235.0999999642372","","3","1","null","null","arrowup","[0.675,0.325,0.15,0.85]","","",""
"sailing-trial","321","2180908","0.0-11.0-270.0","","","","false","","","","","","","","","","792.6999999880791","","87","","3","0","arrowright","1","arrowright","[0.675,0.325,0.15,0.85]","","",""
"sailing-trial","322","2185310","0.0-11.0-271.0","","","","false","","","","","","","","","","null","","1334.5","","1","0","null","null","arrowup","[0.675,0.325,0.15,0.85]","","",""
"sailing-trial","323","2190936","0.0-11.0-272.0","","","","false","","","","","","","","","","1112.7000000476837","","888.1000000238419","","0","1","arrowleft","0","arrowleft","[0.675,0.325,0.15,0.85]","","",""
"sailing-trial","324","2194886","0.0-11.0-273.0","","","","false","","","","","","","","","","null","","1430","","1","0","null","null","arrowup","[0.675,0.325,0.15,0.85]","","",""
"sailing-trial","325","2199447","0.0-11.0-274.0","","","","false","","","","","","","","","","1324.6000000238419","","360.9000000357628","","0","1","arrowleft","0","arrowleft","[0.675,0.325,0.15,0.85]","","",""
"sailing-trial","326","2203441","0.0-11.0-275.0","","","","false","","","","","","","","","","null","","1282.8999999761581","","0","1","null","null","arrowup","[0.675,0.325,0.15,0.85]","","",""
"sailing-trial","327","2208079","0.0-11.0-276.0","","","","false","","","","","","","","","","1681.199999988079","","21.600000023841858","","0","1","arrowleft","0","arrowleft","[0.675,0.325,0.15,0.85]","","",""
"sailing-trial","328","2211310","0.0-11.0-277.0","","","","false","","","","","","","","","","null","","1239.699999988079","","0","1","null","null","arrowup","[0.675,0.325,0.15,0.85]","","",""
"sailing-trial","329","2215247","0.0-11.0-278.0","","","","false","","","","","","","","","","942.3999999761581","","74.39999997615814","","0","1","arrowleft","0","arrowleft","[0.675,0.325,0.15,0.85]","","",""
"sailing-trial","330","2219591","0.0-11.0-279.0","","","","false","","","","","","","","","","null","","1300.4000000357628","","2","0","null","null","arrowup","[0.675,0.325,0.15,0.85]","","",""
"sailing-trial","331","2224859","0.0-11.0-280.0","","","","false","","","","","","","","","","1955.6000000238419","","488.60000002384186","","0","1","arrowleft","0","arrowleft","[0.85,0.15,0.325,0.675]","","",""
"sailing-trial","332","2228563","0.0-11.0-281.0","","","","false","","","","","","","","","","null","","1288.7000000476837","","0","1","null","null","arrowup","[0.85,0.15,0.325,0.675]","","",""
"sailing-trial","333","2233806","0.0-11.0-282.0","","","","false","","","","","","","","","","1315.5","","764.0999999642372","","0","1","arrowleft","0","arrowleft","[0.85,0.15,0.325,0.675]","","",""
"sailing-trial","334","2237593","0.0-11.0-283.0","","","","false","","","","","","","","","","null","","1474.699999988079","","0","1","null","null","arrowup","[0.85,0.15,0.325,0.675]","","",""
"sailing-trial","335","2241820","0.0-11.0-284.0","","","","false","","","","","","","","","","956.5999999642372","","446","","0","1","arrowleft","0","arrowleft","[0.85,0.15,0.325,0.675]","","",""
"sailing-trial","336","2246257","0.0-11.0-285.0","","","","false","","","","","","","","","","null","","1386.300000011921","","1","0","null","null","arrowup","[0.85,0.15,0.325,0.675]","","",""
"sailing-trial","337","2253538","0.0-11.0-286.0","","","","false","","","","","","","","","","1766.5999999642372","","1557","","0","1","arrowleft","0","arrowleft","[0.85,0.15,0.325,0.675]","","",""
"sailing-trial","338","2260208","0.0-11.0-287.0","","","","false","","","","","","","","","","null","","3605.300000011921","","1","0","null","null","arrowup","[0.85,0.15,0.325,0.675]","","",""
"sailing-trial","339","2268403","0.0-11.0-288.0","","","","false","","","","","","","","","","3541.399999976158","","765.1000000238419","","0","1","arrowleft","0","arrowleft","[0.85,0.15,0.325,0.675]","","",""
"sailing-trial","340","2273805","0.0-11.0-289.0","","","","false","","","","","","","","","","null","","2348.699999988079","","1","0","null","null","arrowup","[0.85,0.15,0.325,0.675]","","",""
"sailing-trial","341","2277988","0.0-11.0-290.0","","","","false","","","","","","","","","","909.3000000119209","","134.4000000357628","","0","1","arrowleft","0","arrowleft","[0.85,0.15,0.325,0.675]","","",""
"sailing-trial","342","2282015","0.0-11.0-291.0","","","","false","","","","","","","","","","null","","1600.6000000238419","","2","1","null","null","arrowup","[0.85,0.15,0.325,0.675]","","",""
"sailing-trial","343","2286912","0.0-11.0-292.0","","","","false","","","","","","","","","","1145","","758.5999999642372","","0","1","arrowleft","0","arrowleft","[0.85,0.15,0.325,0.675]","","",""
"sailing-trial","344","2290794","0.0-11.0-293.0","","","","false","","","","","","","","","","null","","1600.300000011921","","0","1","null","null","arrowup","[0.85,0.15,0.325,0.675]","","",""
"sailing-trial","345","2294672","0.0-11.0-294.0","","","","false","","","","","","","","","","1041","","144.5999999642372","","0","1","arrowleft","0","arrowleft","[0.85,0.15,0.325,0.675]","","",""
"sailing-trial","346","2297194","0.0-11.0-295.0","","","","false","","","","","","","","","","null","","1278.6000000238419","","1","0","null","null","arrowup","[0.85,0.15,0.325,0.675]","","",""
"sailing-trial","347","2301213","0.0-11.0-296.0","","","","false","","","","","","","","","","1141.5","","87.30000001192093","","0","0","arrowleft","0","arrowleft","[0.675,0.325,0.15,0.85]","","",""
"sailing-trial","348","2308703","0.0-11.0-297.0","","","","false","","","","","","","","","","null","","3641.2999999523163","","1","1","null","null","arrowup","[0.675,0.325,0.15,0.85]","","",""
"sailing-trial","349","2316498","0.0-11.0-298.0","","","","false","","","","","","","","","","1400.4000000357628","","3985.199999988079","","1","0","arrowleft","0","arrowright","[0.675,0.325,0.15,0.85]","","",""
"sailing-trial","350","2320673","0.0-11.0-299.0","","","","false","","","","","","","","","","null","","1120.0999999642372","","0","0","null","null","arrowup","[0.675,0.325,0.15,0.85]","","",""
"sailing-trial","351","2332637","0.0-11.0-300.0","","","","false","","","","","","","","","","833.6000000238419","","2013","","0","1","arrowleft","0","arrowleft","[0.675,0.325,0.15,0.85]","","",""
"sailing-trial","352","2337034","0.0-11.0-301.0","","","","false","","","","","","","","","","null","","2093.399999976158","","3","1","null","null","arrowup","[0.675,0.325,0.15,0.85]","","",""
"sailing-trial","353","2342674","0.0-11.0-302.0","","","","false","","","","","","","","","","2323.599999964237","","626.6999999880791","","3","0","arrowright","1","arrowright","[0.675,0.325,0.15,0.85]","","",""
"sailing-trial","354","2347287","0.0-11.0-303.0","","","","false","","","","","","","","","","null","","1578","","3","1","null","null","arrowup","[0.675,0.325,0.15,0.85]","","",""
"sailing-trial","355","2352732","0.0-11.0-304.0","","","","false","","","","","","","","","","981.8000000119209","","699.7000000476837","","0","1","arrowleft","0","arrowleft","[0.675,0.325,0.15,0.85]","","",""
"sailing-trial","356","2360618","0.0-11.0-305.0","","","","false","","","","","","","","","","null","","3369","","3","1","null","null","arrowup","[0.675,0.325,0.15,0.85]","","",""
"sailing-trial","357","2370321","0.0-11.0-306.0","","","","false","","","","","","","","","","2592","","1873","","0","1","arrowleft","0","arrowleft","[0.675,0.325,0.15,0.85]","","",""
"sailing-trial","358","2375248","0.0-11.0-307.0","","","","false","","","","","","","","","","null","","1520.7000000476837","","0","1","null","null","arrowup","[0.675,0.325,0.15,0.85]","","",""
"sailing-trial","359","2381133","0.0-11.0-308.0","","","","false","","","","","","","","","","929.1999999880791","","2694","","0","0","arrowleft","0","arrowleft","[0.675,0.325,0.15,0.85]","","",""
"sailing-trial","360","2384034","0.0-11.0-309.0","","","","false","","","","","","","","","","null","","1270.800000011921","","1","1","null","null","arrowup","[0.675,0.325,0.15,0.85]","","",""
"sailing-trial","361","2387544","0.0-11.0-310.0","","","","false","","","","","","","","","","683.1000000238419","","137.30000001192093","","0","1","arrowleft","0","arrowleft","[0.675,0.325,0.15,0.85]","","",""
"sailing-trial","362","2391224","0.0-11.0-311.0","","","","false","","","","","","","","","","null","","1421.2999999523163","","1","1","null","null","arrowup","[0.675,0.325,0.15,0.85]","","",""
"sailing-trial","363","2395921","0.0-11.0-312.0","","","","false","","","","","","","","","","594.9000000357628","","917.3999999761581","","0","1","arrowleft","0","arrowleft","[0.675,0.325,0.15,0.85]","","",""
"sailing-trial","364","2400126","0.0-11.0-313.0","","","","false","","","","","","","","","","null","","1146.7999999523163","","1","0","null","null","arrowup","[0.675,0.325,0.15,0.85]","","",""
"sailing-trial","365","2405226","0.0-11.0-314.0","","","","false","","","","","","","","","","1449.6000000238419","","1026.2000000476837","","0","1","arrowleft","0","arrowleft","[0.675,0.325,0.15,0.85]","","",""
"sailing-trial","366","2411935","0.0-11.0-315.0","","","","false","","","","","","","","","","null","","4098.099999964237","","1","1","null","null","arrowup","[0.675,0.325,0.15,0.85]","","",""
"sailing-trial","367","2418757","0.0-11.0-316.0","","","","false","","","","","","","","","","2188.7000000476837","","855.1000000238419","","0","1","arrowleft","0","arrowleft","[0.675,0.325,0.15,0.85]","","",""
"sailing-trial","368","2423278","0.0-11.0-317.0","","","","false","","","","","","","","","","null","","1440.800000011921","","2","0","null","null","arrowup","[0.675,0.325,0.15,0.85]","","",""
"sailing-trial","369","2429092","0.0-11.0-318.0","","","","false","","","","","","","","","","2119","","1064.5","","0","1","arrowleft","0","arrowleft","[0.85,0.15,0.325,0.675]","","",""
"sailing-trial","370","2436120","0.0-11.0-319.0","","","","false","","","","","","","","","","null","","4588.5","","1","1","null","null","arrowup","[0.85,0.15,0.325,0.675]","","",""
"sailing-trial","371","2442469","0.0-11.0-320.0","","","","false","","","","","","","","","","2309.600000023842","","1403","","1","0","arrowleft","0","arrowright","[0.85,0.15,0.325,0.675]","","",""
"sailing-trial","372","2445355","0.0-11.0-321.0","","","","false","","","","","","","","","","null","","1095.5","","0","1","null","null","arrowup","[0.85,0.15,0.325,0.675]","","",""
"sailing-trial","373","2449552","0.0-11.0-322.0","","","","false","","","","","","","","","","767","","414.30000001192093","","0","1","arrowleft","0","arrowleft","[0.85,0.15,0.325,0.675]","","",""
"sailing-trial","374","2453647","0.0-11.0-323.0","","","","false","","","","","","","","","","null","","2080.400000035763","","3","1","null","null","arrowup","[0.85,0.15,0.325,0.675]","","",""
"sailing-trial","375","2461636","0.0-11.0-324.0","","","","false","","","","","","","","","","1092.199999988079","","3236.100000023842","","0","1","arrowleft","0","arrowleft","[0.85,0.15,0.325,0.675]","","",""
"sailing-trial","376","2465455","0.0-11.0-325.0","","","","false","","","","","","","","","","null","","1313.4000000357628","","2","0","null","null","arrowup","[0.85,0.15,0.325,0.675]","","",""
"sailing-trial","377","2472104","0.0-11.0-326.0","","","","false","","","","","","","","","","1070.2000000476837","","2351.100000023842","","0","1","arrowleft","0","arrowleft","[0.85,0.15,0.325,0.675]","","",""
"sailing-trial","378","2475858","0.0-11.0-327.0","","","","false","","","","","","","","","","null","","1366.7000000476837","","3","1","null","null","arrowup","[0.85,0.15,0.325,0.675]","","",""
"sailing-trial","379","2481750","0.0-11.0-328.0","","","","false","","","","","","","","","","1531.300000011921","","1218.5","","0","1","arrowleft","0","arrowleft","[0.85,0.15,0.325,0.675]","","",""
"sailing-trial","380","2485061","0.0-11.0-329.0","","","","false","","","","","","","","","","null","","1804.1000000238419","","1","0","null","null","arrowup","[0.85,0.15,0.325,0.675]","","",""
"sailing-trial","381","2489727","0.0-11.0-330.0","","","","false","","","","","","","","","","1222.2000000476837","","234.5999999642372","","0","1","arrowleft","0","arrowleft","[0.85,0.15,0.325,0.675]","","",""
"sailing-trial","382","2494050","0.0-11.0-331.0","","","","false","","","","","","","","","","null","","1273.699999988079","","1","0","null","null","arrowup","[0.85,0.15,0.325,0.675]","","",""
"sailing-trial","383","2499759","0.0-11.0-332.0","","","","false","","","","","","","","","","1437.9000000357628","","971.1999999880791","","0","1","arrowleft","0","arrowleft","[0.85,0.15,0.325,0.675]","","",""
"sailing-trial","384","2503973","0.0-11.0-333.0","","","","false","","","","","","","","","","null","","1180.699999988079","","3","0","null","null","arrowup","[0.85,0.15,0.325,0.675]","","",""
"sailing-trial","385","2509203","0.0-11.0-334.0","","","","false","","","","","","","","","","2039.1000000238419","","111.69999998807907","","0","1","arrowleft","0","arrowleft","[0.675,0.325,0.15,0.85]","","",""
"sailing-trial","386","2513596","0.0-11.0-335.0","","","","false","","","","","","","","","","null","","2785.7000000476837","","2","0","null","null","arrowup","[0.675,0.325,0.15,0.85]","","",""
"sailing-trial","387","2527721","0.0-11.0-336.0","","","","false","","","","","","","","","","2676.099999964237","","6046.899999976158","","0","1","arrowleft","0","arrowleft","[0.675,0.325,0.15,0.85]","","",""
"sailing-trial","388","2541006","0.0-11.0-337.0","","","","false","","","","","","","","","","null","","5291.099999964237","","0","1","null","null","arrowup","[0.675,0.325,0.15,0.85]","","",""
"sailing-trial","389","2547563","0.0-11.0-338.0","","","","false","","","","","","","","","","2200.5","","923.3999999761581","","0","1","arrowleft","0","arrowleft","[0.675,0.325,0.15,0.85]","","",""
"sailing-trial","390","2551702","0.0-11.0-339.0","","","","false","","","","","","","","","","null","","1752.800000011921","","3","1","null","null","arrowup","[0.675,0.325,0.15,0.85]","","",""
"sailing-trial","391","2559761","0.0-11.0-340.0","","","","false","","","","","","","","","","4955.899999976158","","408.2000000476837","","0","0","arrowleft","0","arrowleft","[0.675,0.325,0.15,0.85]","","",""
"sailing-trial","392","2564464","0.0-11.0-341.0","","","","false","","","","","","","","","","null","","2801.300000011921","","2","0","null","null","arrowup","[0.675,0.325,0.15,0.85]","","",""
"sailing-trial","393","2569814","0.0-11.0-342.0","","","","false","","","","","","","","","","1739","","473.80000001192093","","3","1","arrowright","1","arrowright","[0.675,0.325,0.15,0.85]","","",""
"sailing-trial","394","2572974","0.0-11.0-343.0","","","","false","","","","","","","","","","null","","1343.8999999761581","","2","1","null","null","arrowup","[0.675,0.325,0.15,0.85]","","",""
"sailing-trial","395","2578729","0.0-11.0-344.0","","","","false","","","","","","","","","","1020.6000000238419","","2072.800000011921","","2","0","arrowright","1","arrowleft","[0.675,0.325,0.15,0.85]","","",""
"sailing-trial","396","2581915","0.0-11.0-345.0","","","","false","","","","","","","","","","null","","1097.3999999761581","","0","1","null","null","arrowup","[0.675,0.325,0.15,0.85]","","",""
"sailing-trial","397","2587124","0.0-11.0-346.0","","","","false","","","","","","","","","","690.8999999761581","","1059.6000000238419","","3","1","arrowright","1","arrowright","[0.675,0.325,0.15,0.85]","","",""
"sailing-trial","398","2590835","0.0-11.0-347.0","","","","false","","","","","","","","","","null","","1332.699999988079","","3","1","null","null","arrowup","[0.675,0.325,0.15,0.85]","","",""
"sailing-trial","399","2594963","0.0-11.0-348.0","","","","false","","","","","","","","","","531.5","","602.1999999880791","","3","1","arrowright","1","arrowright","[0.675,0.325,0.15,0.85]","","",""
"sailing-trial","400","2597979","0.0-11.0-349.0","","","","false","","","","","","","","","","null","","1025.5","","3","1","null","null","arrowup","[0.675,0.325,0.15,0.85]","","",""
"sailing-trial","401","2601854","0.0-11.0-350.0","","","","false","","","","","","","","","","625.1999999880791","","367","","3","1","arrowright","1","arrowright","[0.675,0.325,0.15,0.85]","","",""
"sailing-trial","402","2604478","0.0-11.0-351.0","","","","false","","","","","","","","","","null","","1228.199999988079","","3","0","null","null","arrowup","[0.675,0.325,0.15,0.85]","","",""
"sailing-trial","403","2608496","0.0-11.0-352.0","","","","false","","","","","","","","","","714.1000000238419","","658.5","","0","0","arrowleft","0","arrowleft","[0.85,0.15,0.325,0.675]","","",""
"sailing-trial","404","2611173","0.0-11.0-353.0","","","","false","","","","","","","","","","null","","1188.199999988079","","1","0","null","null","arrowup","[0.85,0.15,0.325,0.675]","","",""
"sailing-trial","405","2615015","0.0-11.0-354.0","","","","false","","","","","","","","","","800.6000000238419","","591.3000000119209","","0","0","arrowleft","0","arrowleft","[0.85,0.15,0.325,0.675]","","",""
"sailing-trial","406","2619816","0.0-11.0-355.0","","","","false","","","","","","","","","","null","","2441.699999988079","","3","1","null","null","arrowup","[0.85,0.15,0.325,0.675]","","",""
"sailing-trial","407","2624655","0.0-11.0-356.0","","","","false","","","","","","","","","","1394.699999988079","","48.80000001192093","","3","0","arrowright","1","arrowright","[0.85,0.15,0.325,0.675]","","",""
"sailing-trial","408","2630700","0.0-11.0-357.0","","","","false","","","","","","","","","","null","","3026.5","","3","1","null","null","arrowup","[0.85,0.15,0.325,0.675]","","",""
"sailing-trial","409","2639100","0.0-11.0-358.0","","","","false","","","","","","","","","","2510","","1255.8999999761581","","0","1","arrowleft","0","arrowleft","[0.85,0.15,0.325,0.675]","","",""
"sailing-trial","410","2642383","0.0-11.0-359.0","","","","false","","","","","","","","","","null","","1952.2000000476837","","2","0","null","null","arrowup","[0.85,0.15,0.325,0.675]","","",""
"sailing-trial","411","2651226","0.0-11.0-360.0","","","","false","","","","","","","","","","3175.800000011921","","2508.199999988079","","0","1","arrowleft","0","arrowleft","[0.85,0.15,0.325,0.675]","","",""
"sailing-trial","412","2657596","0.0-11.0-361.0","","","","false","","","","","","","","","","null","","3304.300000011921","","2","0","null","null","arrowup","[0.85,0.15,0.325,0.675]","","",""
"sailing-trial","413","2666208","0.0-11.0-362.0","","","","false","","","","","","","","","","2981.800000011921","","2274.399999976158","","0","1","arrowleft","0","arrowleft","[0.85,0.15,0.325,0.675]","","",""
"sailing-trial","414","2669843","0.0-11.0-363.0","","","","false","","","","","","","","","","null","","1581.0999999642372","","2","1","null","null","arrowup","[0.85,0.15,0.325,0.675]","","",""
"sailing-trial","415","2673762","0.0-11.0-364.0","","","","false","","","","","","","","","","1221.7000000476837","","33.10000002384186","","2","0","arrowright","1","arrowleft","[0.85,0.15,0.325,0.675]","","",""
"sailing-trial","416","2676038","0.0-11.0-365.0","","","","false","","","","","","","","","","null","","1107.5","","1","0","null","null","arrowup","[0.85,0.15,0.325,0.675]","","",""
"sailing-trial","417","2680565","0.0-11.0-366.0","","","","false","","","","","","","","","","766.5999999642372","","614.4000000357628","","3","0","arrowright","1","arrowright","[0.85,0.15,0.325,0.675]","","",""
"sailing-trial","418","2683934","0.0-11.0-367.0","","","","false","","","","","","","","","","null","","1279.2999999523163","","0","1","null","null","arrowup","[0.85,0.15,0.325,0.675]","","",""
"sailing-trial","419","2690896","0.0-11.0-368.0","","","","false","","","","","","","","","","2143.300000011921","","748.8999999761581","","0","0","arrowleft","0","arrowleft","[0.675,0.325,0.15,0.85]","","",""
"sailing-trial","420","2695322","0.0-11.0-369.0","","","","false","","","","","","","","","","null","","1918.6000000238419","","3","1","null","null","arrowup","[0.675,0.325,0.15,0.85]","","",""
"sailing-trial","421","2709969","0.0-11.0-370.0","","","","false","","","","","","","","","","2899.600000023842","","620.9000000357628","","0","1","arrowleft","0","arrowleft","[0.675,0.325,0.15,0.85]","","",""
"sailing-trial","422","2715171","0.0-11.0-371.0","","","","false","","","","","","","","","","null","","2153.100000023842","","1","0","null","null","arrowup","[0.675,0.325,0.15,0.85]","","",""
"sailing-trial","423","2719657","0.0-11.0-372.0","","","","false","","","","","","","","","","1547","","250.19999998807907","","0","1","arrowleft","0","arrowleft","[0.675,0.325,0.15,0.85]","","",""
"sailing-trial","424","2723603","0.0-11.0-373.0","","","","false","","","","","","","","","","null","","1766.2000000476837","","2","0","null","null","arrowup","[0.675,0.325,0.15,0.85]","","",""
"sailing-trial","425","2728843","0.0-11.0-374.0","","","","false","","","","","","","","","","1931.800000011921","","687.4000000357628","","0","1","arrowleft","0","arrowleft","[0.675,0.325,0.15,0.85]","","",""
"sailing-trial","426","2743878","0.0-11.0-375.0","","","","true","","","","","","","","","","null","","null","","null","null","null","null","null","[0.675,0.325,0.15,0.85]","","",""
"sailing-trial","427","2749899","0.0-11.0-376.0","","","","false","","","","","","","","","","1742.5","","1194.7000000476837","","0","1","arrowleft","0","arrowleft","[0.675,0.325,0.15,0.85]","","",""
"sailing-trial","428","2753155","0.0-11.0-377.0","","","","false","","","","","","","","","","null","","1840.300000011921","","1","0","null","null","arrowup","[0.675,0.325,0.15,0.85]","","",""
"sailing-trial","429","2756951","0.0-11.0-378.0","","","","false","","","","","","","","","","557.0999999642372","","535.8999999761581","","3","1","arrowright","1","arrowright","[0.675,0.325,0.15,0.85]","","",""
"sailing-trial","430","2760353","0.0-11.0-379.0","","","","false","","","","","","","","","","null","","1150.300000011921","","2","1","null","null","arrowup","[0.675,0.325,0.15,0.85]","","",""
"sailing-trial","431","2764762","0.0-11.0-380.0","","","","false","","","","","","","","","","528.8999999761581","","995.1999999880791","","1","1","arrowleft","0","arrowright","[0.675,0.325,0.15,0.85]","","",""
"sailing-trial","432","2768821","0.0-11.0-381.0","","","","false","","","","","","","","","","null","","1017","","2","0","null","null","arrowup","[0.675,0.325,0.15,0.85]","","",""
"sailing-trial","433","2772464","0.0-11.0-382.0","","","","false","","","","","","","","","","496.7000000476837","","12","","0","1","arrowleft","0","arrowleft","[0.675,0.325,0.15,0.85]","","",""
"sailing-trial","434","2776016","0.0-11.0-383.0","","","","false","","","","","","","","","","null","","1675.6000000238419","","2","0","null","null","arrowup","[0.675,0.325,0.15,0.85]","","",""
"sailing-trial","435","2780208","0.0-11.0-384.0","","","","false","","","","","","","","","","1431","","132.60000002384186","","0","1","arrowleft","0","arrowleft","[0.15,0.85,0.675,0.325]","","",""
"sailing-trial","436","2783973","0.0-11.0-385.0","","","","false","","","","","","","","","","null","","1234","","1","1","null","null","arrowup","[0.15,0.85,0.675,0.325]","","",""
"sailing-trial","437","2789454","0.0-11.0-386.0","","","","false","","","","","","","","","","916.6000000238419","","505.5","","0","0","arrowleft","0","arrowleft","[0.15,0.85,0.675,0.325]","","",""
"sailing-trial","438","2793135","0.0-11.0-387.0","","","","false","","","","","","","","","","null","","2523.899999976158","","3","0","null","null","arrowup","[0.15,0.85,0.675,0.325]","","",""
"sailing-trial","439","2798592","0.0-11.0-388.0","","","","false","","","","","","","","","","1179.699999988079","","1306.800000011921","","0","0","arrowleft","0","arrowleft","[0.15,0.85,0.675,0.325]","","",""
"sailing-trial","440","2802670","0.0-11.0-389.0","","","","false","","","","","","","","","","null","","1029.800000011921","","2","0","null","null","arrowup","[0.15,0.85,0.675,0.325]","","",""
"sailing-trial","441","2807752","0.0-11.0-390.0","","","","false","","","","","","","","","","1430.3999999761581","","555.1000000238419","","3","0","arrowright","1","arrowright","[0.15,0.85,0.675,0.325]","","",""
"sailing-trial","442","2812241","0.0-11.0-391.0","","","","false","","","","","","","","","","null","","1798.199999988079","","1","1","null","null","arrowup","[0.15,0.85,0.675,0.325]","","",""
"sailing-trial","443","2818335","0.0-11.0-392.0","","","","false","","","","","","","","","","985.1000000238419","","1033.8999999761581","","0","0","arrowleft","0","arrowleft","[0.15,0.85,0.675,0.325]","","",""
"sailing-trial","444","2823584","0.0-11.0-393.0","","","","false","","","","","","","","","","null","","2877.399999976158","","2","1","null","null","arrowup","[0.15,0.85,0.675,0.325]","","",""
"sailing-trial","445","2833169","0.0-11.0-394.0","","","","false","","","","","","","","","","3151.5","","2359.300000011921","","0","0","arrowleft","0","arrowleft","[0.15,0.85,0.675,0.325]","","",""
"sailing-trial","446","2844830","0.0-11.0-395.0","","","","false","","","","","","","","","","null","","8264.700000047684","","1","1","null","null","arrowup","[0.15,0.85,0.675,0.325]","","",""
"sailing-trial","447","2864292","0.0-11.0-396.0","","","","true","","","","","","","","","","4417.099999964237","","null","","null","null","arrowleft","0","null","[0.15,0.85,0.675,0.325]","","",""
"sailing-trial","448","2867958","0.0-11.0-397.0","","","","false","","","","","","","","","","null","","1497.8999999761581","","3","0","null","null","arrowup","[0.15,0.85,0.675,0.325]","","",""
"sailing-trial","449","2874152","0.0-11.0-398.0","","","","false","","","","","","","","","","1568.5","","545.1999999880791","","0","0","arrowleft","0","arrowleft","[0.15,0.85,0.675,0.325]","","",""
"sailing-trial","450","2883236","0.0-11.0-399.0","","","","false","","","","","","","","","","null","","6805","","0","0","null","null","arrowup","[0.15,0.85,0.675,0.325]","","",""
"instructions","451","2885952","0.0-12.0","","","","","","","","","","2712.5","","","","","","","","","","","","","","","","[{""page_index"":0,""viewing_time"":2707.400000035763}]"
"survey-debrief","452","2944928","0.0-13.0","","","","","","","","","","58963.69999998808","","","","","","","","","","","","","","{""difficulty"":""4"",""fun"":""5"",""clarity"":""5"",""strategy"":"""",""feedback"":""It was very fun and  thank you.""}","",""
