"trial_type","trial_index","time_elapsed","internal_node_id","value","metadata","success","timeout","failed_images","failed_audio","failed_video","browser_interaction","low_quality","rt","stimulus","response","button_pressed","island_rt","island_response","boat_rt","boat_response","boat","reward","island_key","island","boat_key","reward_probabilities","responses","num_errors","view_history"
"pavlovia","0","5","0.0-0.0","","","","","","","","","","","","","","","","","","","","","","","","","",""
"call-function","1","5","0.0-1.0","","{""task_version"":""sailing_part1_v1"",""task_condition"":""good"",""boats"":[""C"",""B"",""A"",""D""],""boats_demo"":[""E"",""F"",""G"",""H""],""islands"":[""B"",""A""],""subject_id"":""14780"",""age"":""22"",""gender"":""Female""}","","","","","","","","","","","","","","","","","","","","","","","",""
"preload","2","2259","0.0-2.0","","","true","false","[]","[]","[]","[{""event"":""fullscreenenter"",""trial"":3,""time"":3787}]","false","","","","","","","","","","","","","","","","",""
"fullscreen","3","4780","0.0-3.0","","","true","","","","","","","","","","","","","","","","","","","","","","",""
"audio-keyboard-response","4","6449","0.0-4.0-0.0","","","","","","","","","","1637.0068027210884","audio/beep_loop.wav"," ","","","","","","","","","","","","","",""
"audio-test","5","8080","0.0-4.0-1.0","","","","","","","","","","null","audio/turtle.mp3","","3","","","","","","","","","","","","",""
"audio-test","6","10446","0.0-4.0-2.0","","","","","","","","","","null","audio/shark.mp3","","2","","","","","","","","","","","","",""
"sailing-instructions","7","41160","0.0-5.0-0.0-0.0","","","","","","","","","","","","","","null","null","null","null","null","null","","","","","","",""
"sailing-trial","8","43876","0.0-5.0-0.0-1.0-0.0","","","","false","","","","","","","","","","1589.800000011921","","null","","null","null","arrowleft","0","null","null","","",""
"sailing-trial","9","45790","0.0-5.0-0.0-1.0-1.0","","","","false","","","","","","","","","","803","","null","","null","null","arrowright","1","null","null","","",""
"sailing-trial","10","47874","0.0-5.0-0.0-1.0-2.0","","","","false","","","","","","","","","","984.8000000119209","","null","","null","null","arrowleft","0","null","null","","",""
"sailing-instructions","11","87861","0.0-5.0-0.0-2.0","","","","","","","","","","","","","","null","null","null","null","0","null","","","","","","",""
"sailing-trial","12","91922","0.0-5.0-0.0-3.0-0.0","","","","false","","","","","","","","","","null","","1299.0999999940395","","2","1","null","null","arrowleft","[1,1,1,1]","","",""
"sailing-trial","13","95022","0.0-5.0-0.0-3.0-1.0","","","","false","","","","","","","","","","null","","448.90000000596046","","3","1","null","null","arrowright","[1,1,1,1]","","",""
"sailing-trial","14","98249","0.0-5.0-0.0-3.0-2.0","","","","false","","","","","","","","","","null","","848.2000000178814","","3","0","null","null","arrowright","[0,0,0,0]","","",""
"sailing-instructions","15","105814","0.0-5.0-0.0-4.0","","","","","","","","","","","","","","null","null","null","null","null","null","","","","","","",""
"sailing-comprehension","16","118363","0.0-5.0-0.0-5.0","","","","","","","","","","7954","","","","","","","","","","","","","","[""true"",""false"",""false"",""true""]","1",""
"sailing-instructions","17","164205","0.0-5.0-0.1-0.1","","","","","","","","","","","","","","null","null","null","null","null","null","","","","","","",""
"sailing-trial","18","166675","0.0-5.0-0.1-1.1-0.1","","","","false","","","","","","","","","","1356.300000011921","","null","","null","null","arrowleft","0","null","null","","",""
"sailing-trial","19","168627","0.0-5.0-0.1-1.1-1.1","","","","false","","","","","","","","","","848.1999999880791","","null","","null","null","arrowright","1","null","null","","",""
"sailing-trial","20","170843","0.0-5.0-0.1-1.1-2.1","","","","false","","","","","","","","","","1115.7000000178814","","null","","null","null","arrowleft","0","null","null","","",""
"sailing-instructions","21","213097","0.0-5.0-0.1-2.1","","","","","","","","","","","","","","null","null","null","null","0","null","","","","","","",""
"sailing-trial","22","217554","0.0-5.0-0.1-3.1-0.1","","","","false","","","","","","","","","","null","","2130.9000000059605","","2","1","null","null","arrowleft","[1,1,1,1]","","",""
"sailing-trial","23","220271","0.0-5.0-0.1-3.1-1.1","","","","false","","","","","","","","","","null","","531.5","","3","1","null","null","arrowright","[1,1,1,1]","","",""
"sailing-trial","24","222742","0.0-5.0-0.1-3.1-2.1","","","","false","","","","","","","","","","null","","350.09999999403954","","2","0","null","null","arrowleft","[0,0,0,0]","","",""
"sailing-instructions","25","230073","0.0-5.0-0.1-4.1","","","","","","","","","","","","","","null","null","null","null","null","null","","","","","","",""
"sailing-comprehension","26","238259","0.0-5.0-0.1-5.1","","","","","","","","","","6660.100000023842","","","","","","","","","","","","","","[""true"",""true"",""false"",""true""]","0",""
"sailing-instructions","27","297906","0.0-6.0-0.0-0.0","","","","","","","","","","","","","","null","null","null","null","null","null","","","","","","",""
"sailing-comprehension","28","307716","0.0-6.0-0.0-1.0","","","","","","","","","","8873.899999976158","","","","","","","","","","","","","","[""true"",""false"",""true""]","0",""
"sailing-instructions","29","321375","0.0-7.0-0.0-0.0","","","","","","","","","","","","","","null","null","null","null","null","null","","","","","","",""
"sailing-trial","30","325905","0.0-7.0-0.0-1.0-0.0","","","","false","","","","","","","","","","null","","2523.100000023842","","0","0","null","null","arrowup","[0.2,0.8,0.2,0.8]","","",""
"sailing-trial","31","329102","0.0-7.0-0.0-1.0-1.0","","","","false","","","","","","","","","","null","","1208.199999988079","","1","1","null","null","arrowup","[0.2,0.8,0.2,0.8]","","",""
"sailing-trial","32","331286","0.0-7.0-0.0-1.0-2.0","","","","false","","","","","","","","","","null","","540.3000000119209","","2","1","null","null","arrowup","[0.2,0.8,0.2,0.8]","","",""
"sailing-trial","33","333568","0.0-7.0-0.0-1.0-3.0","","","","false","","","","","","","","","","null","","478.7000000178814","","3","1","null","null","arrowup","[0.2,0.8,0.2,0.8]","","",""
"sailing-comprehension","34","337768","0.0-7.0-0.0-2.0","","","","","","","","","","3468.199999988079","","","","","","","","","","","","","","[""false""]","0",""
"sailing-instructions","35","347930","0.0-8.0-0.0-0.0","","","","","","","","","","","","","","null","null","null","null","null","null","","","","","","",""
"sailing-comprehension","36","350857","0.0-8.0-0.0-1.0","","","","","","","","","","2357.4000000059605","","","","","","","","","","","","","","[""true""]","0",""
"sailing-instructions","37","383087","0.0-9.0-0.0-0.0","","","","","","","","","","","","","","null","null","null","null","null","null","","","","","","",""
"sailing-trial","38","387995","0.0-9.0-0.0-1.0-0.0","","","","false","","","","","","","","","","1137.6000000238419","","539.1999999880791","","0","0","arrowleft","0","arrowleft","[0.2,0.8,0.2,0.8]","","",""
"sailing-trial","39","392418","0.0-9.0-0.0-1.0-1.0","","","","false","","","","","","","","","","840.8000000119209","","562.0999999940395","","1","1","arrowleft","0","arrowright","[0.2,0.8,0.2,0.8]","","",""
"sailing-trial","40","394777","0.0-9.0-0.0-1.0-2.0","","","","false","","","","","","","","","","null","","1138","","0","0","null","null","arrowup","[0.2,0.8,0.2,0.8]","","",""
"sailing-trial","41","398381","0.0-9.0-0.0-1.0-3.0","","","","false","","","","","","","","","","797.3999999761581","","8.400000005960464","","2","1","arrowright","1","arrowleft","[0.2,0.8,0.2,0.8]","","",""
"sailing-trial","42","401299","0.0-9.0-0.0-1.0-4.0","","","","false","","","","","","","","","","null","","1015.5","","3","1","null","null","arrowup","[0.2,0.8,0.2,0.8]","","",""
"sailing-trial","43","404537","0.0-9.0-0.0-1.0-5.0","","","","false","","","","","","","","","","769.6999999880791","","22.899999976158142","","2","0","arrowright","1","arrowleft","[0.2,0.8,0.2,0.8]","","",""
"sailing-instructions","44","428725","0.0-10.0","","","","","","","","","","","","","","null","null","null","null","null","null","","","","","","",""
"sailing-trial","45","432244","0.0-11.0-0.0","","","","false","","","","","","","","","","574.8000000119209","","434.19999998807907","","0","0","arrowleft","0","arrowleft","[0.15,0.85,0.325,0.675]","","",""
"sailing-trial","46","434468","0.0-11.0-1.0","","","","false","","","","","","","","","","null","","1007.7999999821186","","2","0","null","null","arrowup","[0.15,0.85,0.325,0.675]","","",""
"sailing-trial","47","438153","0.0-11.0-2.0","","","","false","","","","","","","","","","649","","117.7000000178814","","1","1","arrowleft","0","arrowright","[0.15,0.85,0.325,0.675]","","",""
"sailing-trial","48","440088","0.0-11.0-3.0","","","","false","","","","","","","","","","null","","870.7999999821186","","0","0","null","null","arrowup","[0.15,0.85,0.325,0.675]","","",""
"sailing-trial","49","443663","0.0-11.0-4.0","","","","false","","","","","","","","","","720.2999999821186","","4.0999999940395355","","1","1","arrowleft","0","arrowright","[0.15,0.85,0.325,0.675]","","",""
"sailing-trial","50","445560","0.0-11.0-5.0","","","","false","","","","","","","","","","null","","878.2999999821186","","2","0","null","null","arrowup","[0.15,0.85,0.325,0.675]","","",""
"sailing-trial","51","449965","0.0-11.0-6.0","","","","false","","","","","","","","","","588.4000000059605","","1116","","1","1","arrowleft","0","arrowright","[0.15,0.85,0.325,0.675]","","",""
"sailing-trial","52","451876","0.0-11.0-7.0","","","","false","","","","","","","","","","null","","858.2999999821186","","0","0","null","null","arrowup","[0.15,0.85,0.325,0.675]","","",""
"sailing-trial","53","456080","0.0-11.0-8.0","","","","false","","","","","","","","","","788.3999999761581","","534.1999999880791","","1","1","arrowleft","0","arrowright","[0.15,0.85,0.325,0.675]","","",""
"sailing-trial","54","458347","0.0-11.0-9.0","","","","false","","","","","","","","","","null","","660.3000000119209","","3","1","null","null","arrowup","[0.15,0.85,0.325,0.675]","","",""
"sailing-trial","55","462730","0.0-11.0-10.0","","","","false","","","","","","","","","","504.7000000178814","","1073.9000000059605","","1","1","arrowleft","0","arrowright","[0.15,0.85,0.325,0.675]","","",""
"sailing-trial","56","465280","0.0-11.0-11.0","","","","false","","","","","","","","","","null","","749.5","","2","1","null","null","arrowup","[0.15,0.85,0.325,0.675]","","",""
"sailing-trial","57","468488","0.0-11.0-12.0","","","","false","","","","","","","","","","623.3000000119209","","74","","1","0","arrowleft","0","arrowright","[0.15,0.85,0.325,0.675]","","",""
"sailing-trial","58","471215","0.0-11.0-13.0","","","","false","","","","","","","","","","null","","919.1999999880791","","3","1","null","null","arrowup","[0.15,0.85,0.325,0.675]","","",""
"sailing-trial","59","475106","0.0-11.0-14.0","","","","false","","","","","","","","","","456.90000000596046","","966.5999999940395","","0","0","arrowleft","0","arrowleft","[0.15,0.85,0.325,0.675]","","",""
"sailing-trial","60","477166","0.0-11.0-15.0","","","","false","","","","","","","","","","null","","694.6999999880791","","2","0","null","null","arrowup","[0.15,0.85,0.325,0.675]","","",""
"sailing-trial","61","481083","0.0-11.0-16.0","","","","false","","","","","","","","","","530.5","","502.19999998807907","","3","1","arrowright","1","arrowright","[0.325,0.675,0.15,0.85]","","",""
"sailing-trial","62","483246","0.0-11.0-17.0","","","","false","","","","","","","","","","null","","944.5999999940395","","2","0","null","null","arrowup","[0.325,0.675,0.15,0.85]","","",""
"sailing-trial","63","487263","0.0-11.0-18.0","","","","false","","","","","","","","","","531.5999999940395","","563.7000000178814","","3","1","arrowright","1","arrowright","[0.325,0.675,0.15,0.85]","","",""
"sailing-trial","64","490517","0.0-11.0-19.0","","","","false","","","","","","","","","","null","","709.1000000238419","","0","0","null","null","arrowup","[0.325,0.675,0.15,0.85]","","",""
"sailing-trial","65","494129","0.0-11.0-20.0","","","","false","","","","","","","","","","507.69999998807907","","232.19999998807907","","3","1","arrowright","1","arrowright","[0.325,0.675,0.15,0.85]","","",""
"sailing-trial","66","496498","0.0-11.0-21.0","","","","false","","","","","","","","","","null","","548","","3","1","null","null","arrowup","[0.325,0.675,0.15,0.85]","","",""
"sailing-trial","67","500364","0.0-11.0-22.0","","","","false","","","","","","","","","","550.5","","73.90000000596046","","3","1","arrowright","1","arrowright","[0.325,0.675,0.15,0.85]","","",""
"sailing-trial","68","502429","0.0-11.0-23.0","","","","false","","","","","","","","","","null","","740","","2","0","null","null","arrowup","[0.325,0.675,0.15,0.85]","","",""
"sailing-trial","69","505827","0.0-11.0-24.0","","","","false","","","","","","","","","","613.1000000238419","","0.8999999761581421","","3","0","arrowright","1","arrowright","[0.325,0.675,0.15,0.85]","","",""
"sailing-trial","70","508531","0.0-11.0-25.0","","","","false","","","","","","","","","","null","","899.8999999761581","","1","1","null","null","arrowup","[0.325,0.675,0.15,0.85]","","",""
"sailing-trial","71","511921","0.0-11.0-26.0","","","","false","","","","","","","","","","519","","324.30000001192093","","2","0","arrowright","1","arrowleft","[0.325,0.675,0.15,0.85]","","",""
"sailing-trial","72","514432","0.0-11.0-27.0","","","","false","","","","","","","","","","null","","731","","2","1","null","null","arrowup","[0.325,0.675,0.15,0.85]","","",""
"sailing-trial","73","518857","0.0-11.0-28.0","","","","false","","","","","","","","","","1129.300000011921","","939.7000000178814","","2","0","arrowright","1","arrowleft","[0.325,0.675,0.15,0.85]","","",""
"sailing-trial","74","521498","0.0-11.0-29.0","","","","false","","","","","","","","","","null","","833.9000000059605","","3","1","null","null","arrowup","[0.325,0.675,0.15,0.85]","","",""
"sailing-trial","75","525430","0.0-11.0-30.0","","","","false","","","","","","","","","","517.4000000059605","","590.5","","3","1","arrowright","1","arrowright","[0.325,0.675,0.15,0.85]","","",""
"sailing-trial","76","527318","0.0-11.0-31.0","","","","false","","","","","","","","","","null","","533.7000000178814","","0","0","null","null","arrowup","[0.325,0.675,0.15,0.85]","","",""
"sailing-trial","77","530574","0.0-11.0-32.0","","","","false","","","","","","","","","","613.5","","205.40000000596046","","3","0","arrowright","1","arrowright","[0.675,0.325,0.85,0.15]","","",""
"sailing-trial","78","533182","0.0-11.0-33.0","","","","false","","","","","","","","","","null","","1371.7000000178814","","0","0","null","null","arrowup","[0.675,0.325,0.85,0.15]","","",""
"sailing-trial","79","536414","0.0-11.0-34.0","","","","false","","","","","","","","","","566.3000000119209","","135.90000000596046","","0","0","arrowleft","0","arrowleft","[0.675,0.325,0.85,0.15]","","",""
"sailing-trial","80","538765","0.0-11.0-35.0","","","","false","","","","","","","","","","null","","553.5","","0","1","null","null","arrowup","[0.675,0.325,0.85,0.15]","","",""
"sailing-trial","81","542037","0.0-11.0-36.0","","","","false","","","","","","","","","","422.40000000596046","","450.80000001192093","","1","0","arrowleft","0","arrowright","[0.675,0.325,0.85,0.15]","","",""
"sailing-trial","82","544060","0.0-11.0-37.0","","","","false","","","","","","","","","","null","","676.5","","3","0","null","null","arrowup","[0.675,0.325,0.85,0.15]","","",""
"sailing-trial","83","547845","0.0-11.0-38.0","","","","false","","","","","","","","","","787.6999999880791","","154.7999999821186","","1","1","arrowleft","0","arrowright","[0.675,0.325,0.85,0.15]","","",""
"sailing-trial","84","550532","0.0-11.0-39.0","","","","false","","","","","","","","","","null","","805.0999999940395","","1","1","null","null","arrowup","[0.675,0.325,0.85,0.15]","","",""
"sailing-trial","85","553886","0.0-11.0-40.0","","","","false","","","","","","","","","","511.80000001192093","","535","","1","0","arrowleft","0","arrowright","[0.675,0.325,0.85,0.15]","","",""
"sailing-trial","86","557148","0.0-11.0-41.0","","","","false","","","","","","","","","","null","","1451.300000011921","","2","1","null","null","arrowup","[0.675,0.325,0.85,0.15]","","",""
"sailing-trial","87","560534","0.0-11.0-42.0","","","","false","","","","","","","","","","647.6000000238419","","304.80000001192093","","1","0","arrowleft","0","arrowright","[0.675,0.325,0.85,0.15]","","",""
"sailing-trial","88","562575","0.0-11.0-43.0","","","","false","","","","","","","","","","null","","736","","2","0","null","null","arrowup","[0.675,0.325,0.85,0.15]","","",""
"sailing-trial","89","565640","0.0-11.0-44.0","","","","false","","","","","","","","","","555.8000000119209","","16.400000005960464","","3","0","arrowright","1","arrowright","[0.675,0.325,0.85,0.15]","","",""
"sailing-trial","90","567760","0.0-11.0-45.0","","","","false","","","","","","","","","","null","","797.5999999940395","","1","0","null","null","arrowup","[0.675,0.325,0.85,0.15]","","",""
"sailing-trial","91","571879","0.0-11.0-46.0","","","","false","","","","","","","","","","573","","715.3000000119209","","2","1","arrowright","1","arrowleft","[0.675,0.325,0.85,0.15]","","",""
"sailing-trial","92","573962","0.0-11.0-47.0","","","","false","","","","","","","","","","null","","781.7000000178814","","3","0","null","null","arrowup","[0.675,0.325,0.85,0.15]","","",""
"sailing-trial","93","577467","0.0-11.0-48.0","","","","false","","","","","","","","","","676.2000000178814","","14.199999988079071","","2","1","arrowright","1","arrowleft","[0.675,0.325,0.85,0.15]","","",""
"sailing-trial","94","579567","0.0-11.0-49.0","","","","false","","","","","","","","","","null","","768.4000000059605","","1","0","null","null","arrowup","[0.675,0.325,0.85,0.15]","","",""
"sailing-trial","95","583151","0.0-11.0-50.0","","","","false","","","","","","","","","","630.8000000119209","","101.09999999403954","","2","1","arrowright","1","arrowleft","[0.85,0.15,0.675,0.325]","","",""
"sailing-trial","96","585495","0.0-11.0-51.0","","","","false","","","","","","","","","","null","","445.09999999403954","","2","1","null","null","arrowup","[0.85,0.15,0.675,0.325]","","",""
"sailing-trial","97","589230","0.0-11.0-52.0","","","","false","","","","","","","","","","496.5","","29.599999994039536","","2","1","arrowright","1","arrowleft","[0.85,0.15,0.675,0.325]","","",""
"sailing-trial","98","591359","0.0-11.0-53.0","","","","false","","","","","","","","","","null","","800.5999999940395","","1","0","null","null","arrowup","[0.85,0.15,0.675,0.325]","","",""
"sailing-trial","99","595411","0.0-11.0-54.0","","","","false","","","","","","","","","","746.2999999821186","","112.2999999821186","","2","1","arrowright","1","arrowleft","[0.85,0.15,0.675,0.325]","","",""
"sailing-trial","100","598210","0.0-11.0-55.0","","","","false","","","","","","","","","","null","","971.4000000059605","","3","1","null","null","arrowup","[0.85,0.15,0.675,0.325]","","",""
"sailing-trial","101","602310","0.0-11.0-56.0","","","","false","","","","","","","","","","604.6999999880791","","696","","2","1","arrowright","1","arrowleft","[0.85,0.15,0.675,0.325]","","",""
"sailing-trial","102","604333","0.0-11.0-57.0","","","","false","","","","","","","","","","null","","707.9000000059605","","1","0","null","null","arrowup","[0.85,0.15,0.675,0.325]","","",""
"sailing-trial","103","608600","0.0-11.0-58.0","","","","false","","","","","","","","","","563.4000000059605","","871.1000000238419","","2","1","arrowright","1","arrowleft","[0.85,0.15,0.675,0.325]","","",""
"sailing-trial","104","610703","0.0-11.0-59.0","","","","false","","","","","","","","","","null","","794.7999999821186","","3","0","null","null","arrowup","[0.85,0.15,0.675,0.325]","","",""
"sailing-trial","105","614693","0.0-11.0-60.0","","","","false","","","","","","","","","","577.3000000119209","","547.4000000059605","","2","1","arrowright","1","arrowleft","[0.85,0.15,0.675,0.325]","","",""
"sailing-trial","106","616977","0.0-11.0-61.0","","","","false","","","","","","","","","","null","","499.19999998807907","","3","1","null","null","arrowup","[0.85,0.15,0.675,0.325]","","",""
"sailing-trial","107","620459","0.0-11.0-62.0","","","","false","","","","","","","","","","665.3999999761581","","4.300000011920929","","2","1","arrowright","1","arrowleft","[0.85,0.15,0.675,0.325]","","",""
"sailing-trial","108","622376","0.0-11.0-63.0","","","","false","","","","","","","","","","null","","575.7999999821186","","1","0","null","null","arrowup","[0.85,0.15,0.675,0.325]","","",""
"sailing-trial","109","625354","0.0-11.0-64.0","","","","false","","","","","","","","","","663.4000000059605","","15.099999994039536","","2","0","arrowright","1","arrowleft","[0.85,0.15,0.675,0.325]","","",""
"sailing-trial","110","628243","0.0-11.0-65.0","","","","false","","","","","","","","","","null","","860.6999999880791","","3","0","null","null","arrowup","[0.85,0.15,0.675,0.325]","","",""
"sailing-trial","111","631920","0.0-11.0-66.0","","","","false","","","","","","","","","","508.80000001192093","","393.30000001192093","","3","0","arrowright","1","arrowright","[0.675,0.325,0.85,0.15]","","",""
"sailing-trial","112","634896","0.0-11.0-67.0","","","","false","","","","","","","","","","null","","1045.5999999940395","","3","1","null","null","arrowup","[0.675,0.325,0.85,0.15]","","",""
"sailing-trial","113","638738","0.0-11.0-68.0","","","","false","","","","","","","","","","460.7000000178814","","416.69999998807907","","0","1","arrowleft","0","arrowleft","[0.675,0.325,0.85,0.15]","","",""
"sailing-trial","114","640676","0.0-11.0-69.0","","","","false","","","","","","","","","","null","","642.5999999940395","","1","0","null","null","arrowup","[0.675,0.325,0.85,0.15]","","",""
"sailing-trial","115","644093","0.0-11.0-70.0","","","","false","","","","","","","","","","580","","42.5","","0","1","arrowleft","0","arrowleft","[0.675,0.325,0.85,0.15]","","",""
"sailing-trial","116","646427","0.0-11.0-71.0","","","","false","","","","","","","","","","null","","508.5","","0","1","null","null","arrowup","[0.675,0.325,0.85,0.15]","","",""
"sailing-trial","117","650210","0.0-11.0-72.0","","","","false","","","","","","","","","","436.7999999821186","","498.90000000596046","","0","1","arrowleft","0","arrowleft","[0.675,0.325,0.85,0.15]","","",""
"sailing-trial","118","652202","0.0-11.0-73.0","","","","false","","","","","","","","","","null","","594.4000000059605","","1","0","null","null","arrowup","[0.675,0.325,0.85,0.15]","","",""
"sailing-trial","119","655484","0.0-11.0-74.0","","","","false","","","","","","","","","","594.4000000059605","","347.40000000596046","","0","0","arrowleft","0","arrowleft","[0.675,0.325,0.85,0.15]","","",""
"sailing-trial","120","657522","0.0-11.0-75.0","","","","false","","","","","","","","","","null","","735.5","","1","0","null","null","arrowup","[0.675,0.325,0.85,0.15]","","",""
"sailing-trial","121","661879","0.0-11.0-76.0","","","","false","","","","","","","","","","1134.800000011921","","404","","1","1","arrowleft","0","arrowright","[0.675,0.325,0.85,0.15]","","",""
"sailing-trial","122","663681","0.0-11.0-77.0","","","","false","","","","","","","","","","null","","507.90000000596046","","1","0","null","null","arrowup","[0.675,0.325,0.85,0.15]","","",""
"sailing-trial","123","667375","0.0-11.0-78.0","","","","false","","","","","","","","","","616.1000000238419","","167.69999998807907","","2","1","arrowright","1","arrowleft","[0.675,0.325,0.85,0.15]","","",""
"sailing-trial","124","669359","0.0-11.0-79.0","","","","false","","","","","","","","","","null","","641.7000000178814","","1","0","null","null","arrowup","[0.675,0.325,0.85,0.15]","","",""
"sailing-trial","125","673125","0.0-11.0-80.0","","","","false","","","","","","","","","","815.1999999880791","","18.700000017881393","","2","1","arrowright","1","arrowleft","[0.675,0.325,0.85,0.15]","","",""
"sailing-trial","126","675675","0.0-11.0-81.0","","","","false","","","","","","","","","","null","","784.8000000119209","","0","1","null","null","arrowup","[0.675,0.325,0.85,0.15]","","",""
"sailing-trial","127","678992","0.0-11.0-82.0","","","","false","","","","","","","","","","433.69999998807907","","36","","0","1","arrowleft","0","arrowleft","[0.675,0.325,0.85,0.15]","","",""
"sailing-trial","128","682004","0.0-11.0-83.0","","","","false","","","","","","","","","","null","","1622","","0","0","null","null","arrowup","[0.675,0.325,0.85,0.15]","","",""
"sailing-trial","129","685858","0.0-11.0-84.0","","","","false","","","","","","","","","","1173.5","","38.400000005960464","","3","0","arrowright","1","arrowright","[0.675,0.325,0.85,0.15]","","",""
"sailing-trial","130","688349","0.0-11.0-85.0","","","","false","","","","","","","","","","null","","647.1999999880791","","0","1","null","null","arrowup","[0.675,0.325,0.85,0.15]","","",""
"sailing-trial","131","691383","0.0-11.0-86.0","","","","false","","","","","","","","","","475.30000001192093","","109.30000001192093","","0","0","arrowleft","0","arrowleft","[0.675,0.325,0.85,0.15]","","",""
"sailing-trial","132","693503","0.0-11.0-87.0","","","","false","","","","","","","","","","null","","810.6999999880791","","1","0","null","null","arrowup","[0.675,0.325,0.85,0.15]","","",""
"sailing-trial","133","697579","0.0-11.0-88.0","","","","false","","","","","","","","","","677.2999999821186","","577.8999999761581","","1","1","arrowleft","0","arrowright","[0.15,0.85,0.325,0.675]","","",""
"sailing-trial","134","699279","0.0-11.0-89.0","","","","false","","","","","","","","","","null","","385","","2","0","null","null","arrowup","[0.15,0.85,0.325,0.675]","","",""
"sailing-trial","135","702909","0.0-11.0-90.0","","","","false","","","","","","","","","","665.5","","1.2000000178813934","","1","1","arrowleft","0","arrowright","[0.15,0.85,0.325,0.675]","","",""
"sailing-trial","136","705459","0.0-11.0-91.0","","","","false","","","","","","","","","","null","","782.5","","3","1","null","null","arrowup","[0.15,0.85,0.325,0.675]","","",""
"sailing-trial","137","708781","0.0-11.0-92.0","","","","false","","","","","","","","","","429.69999998807907","","92.39999997615814","","1","1","arrowleft","0","arrowright","[0.15,0.85,0.325,0.675]","","",""
"sailing-trial","138","711061","0.0-11.0-93.0","","","","false","","","","","","","","","","null","","576.5999999940395","","1","1","null","null","arrowup","[0.15,0.85,0.325,0.675]","","",""
"sailing-trial","139","714263","0.0-11.0-94.0","","","","false","","","","","","","","","","417","","1.5","","1","1","arrowleft","0","arrowright","[0.15,0.85,0.325,0.675]","","",""
"sailing-trial","140","715872","0.0-11.0-95.0","","","","false","","","","","","","","","","null","","447","","0","0","null","null","arrowup","[0.15,0.85,0.325,0.675]","","",""
"sailing-trial","141","719700","0.0-11.0-96.0","","","","false","","","","","","","","","","467.09999999403954","","962.2000000178814","","1","0","arrowleft","0","arrowright","[0.15,0.85,0.325,0.675]","","",""
"sailing-trial","142","722210","0.0-11.0-97.0","","","","false","","","","","","","","","","null","","814.0999999940395","","0","1","null","null","arrowup","[0.15,0.85,0.325,0.675]","","",""
"sailing-trial","143","726162","0.0-11.0-98.0","","","","false","","","","","","","","","","629.9000000059605","","460.7999999821186","","1","1","arrowleft","0","arrowright","[0.15,0.85,0.325,0.675]","","",""
"sailing-trial","144","728441","0.0-11.0-99.0","","","","false","","","","","","","","","","null","","551","","1","1","null","null","arrowup","[0.15,0.85,0.325,0.675]","","",""
"sailing-trial","145","731892","0.0-11.0-100.0","","","","false","","","","","","","","","","398.40000000596046","","323.40000000596046","","1","1","arrowleft","0","arrowright","[0.15,0.85,0.325,0.675]","","",""
"sailing-trial","146","734327","0.0-11.0-101.0","","","","false","","","","","","","","","","null","","624.2999999821186","","1","1","null","null","arrowup","[0.15,0.85,0.325,0.675]","","",""
"sailing-trial","147","738186","0.0-11.0-102.0","","","","false","","","","","","","","","","708.7000000178814","","408.09999999403954","","1","0","arrowleft","0","arrowright","[0.15,0.85,0.325,0.675]","","",""
"sailing-trial","148","740616","0.0-11.0-103.0","","","","false","","","","","","","","","","null","","1035.7000000178814","","3","0","null","null","arrowup","[0.15,0.85,0.325,0.675]","","",""
"sailing-trial","149","743723","0.0-11.0-104.0","","","","false","","","","","","","","","","496.09999999403954","","11.900000005960464","","0","0","arrowleft","0","arrowleft","[0.325,0.675,0.15,0.85]","","",""
"sailing-trial","150","745807","0.0-11.0-105.0","","","","false","","","","","","","","","","null","","770.5999999940395","","2","0","null","null","arrowup","[0.325,0.675,0.15,0.85]","","",""
"sailing-trial","151","748810","0.0-11.0-106.0","","","","false","","","","","","","","","","483.19999998807907","","129","","2","0","arrowright","1","arrowleft","[0.325,0.675,0.15,0.85]","","",""
"sailing-trial","152","751545","0.0-11.0-107.0","","","","false","","","","","","","","","","null","","940.5999999940395","","1","1","null","null","arrowup","[0.325,0.675,0.15,0.85]","","",""
"sailing-trial","153","755132","0.0-11.0-108.0","","","","false","","","","","","","","","","583.2000000178814","","124","","3","1","arrowright","1","arrowright","[0.325,0.675,0.15,0.85]","","",""
"sailing-trial","154","757991","0.0-11.0-109.0","","","","false","","","","","","","","","","null","","1063.1000000238419","","2","1","null","null","arrowup","[0.325,0.675,0.15,0.85]","","",""
"sailing-trial","155","761580","0.0-11.0-110.0","","","","false","","","","","","","","","","441.90000000596046","","344.69999998807907","","3","0","arrowright","1","arrowright","[0.325,0.675,0.15,0.85]","","",""
"sailing-trial","156","763623","0.0-11.0-111.0","","","","false","","","","","","","","","","null","","795.5","","2","0","null","null","arrowup","[0.325,0.675,0.15,0.85]","","",""
"sailing-trial","157","767223","0.0-11.0-112.0","","","","false","","","","","","","","","","891.2999999821186","","361.90000000596046","","2","0","arrowright","1","arrowleft","[0.325,0.675,0.15,0.85]","","",""
"sailing-trial","158","769473","0.0-11.0-113.0","","","","false","","","","","","","","","","null","","907.9000000059605","","1","0","null","null","arrowup","[0.325,0.675,0.15,0.85]","","",""
"sailing-trial","159","773008","0.0-11.0-114.0","","","","false","","","","","","","","","","624.7999999821186","","22.399999976158142","","3","1","arrowright","1","arrowright","[0.325,0.675,0.15,0.85]","","",""
"sailing-trial","160","774675","0.0-11.0-115.0","","","","false","","","","","","","","","","null","","346","","0","0","null","null","arrowup","[0.325,0.675,0.15,0.85]","","",""
"sailing-trial","161","778390","0.0-11.0-116.0","","","","false","","","","","","","","","","540.8000000119209","","305.5","","3","1","arrowright","1","arrowright","[0.325,0.675,0.15,0.85]","","",""
"sailing-trial","162","780859","0.0-11.0-117.0","","","","false","","","","","","","","","","null","","681","","1","1","null","null","arrowup","[0.325,0.675,0.15,0.85]","","",""
"sailing-trial","163","784407","0.0-11.0-118.0","","","","false","","","","","","","","","","439.5","","274.90000000596046","","3","1","arrowright","1","arrowright","[0.325,0.675,0.15,0.85]","","",""
"sailing-trial","164","786321","0.0-11.0-119.0","","","","false","","","","","","","","","","null","","633.1999999880791","","1","0","null","null","arrowup","[0.325,0.675,0.15,0.85]","","",""
"sailing-trial","165","789842","0.0-11.0-120.0","","","","false","","","","","","","","","","622.1999999880791","","65.2000000178814","","3","1","arrowright","1","arrowright","[0.325,0.675,0.15,0.85]","","",""
"sailing-trial","166","791768","0.0-11.0-121.0","","","","false","","","","","","","","","","null","","657.5","","0","0","null","null","arrowup","[0.325,0.675,0.15,0.85]","","",""
"sailing-trial","167","795290","0.0-11.0-122.0","","","","false","","","","","","","","","","708.9000000059605","","34.10000002384186","","3","1","arrowright","1","arrowright","[0.325,0.675,0.15,0.85]","","",""
"sailing-trial","168","797475","0.0-11.0-123.0","","","","false","","","","","","","","","","null","","404.69999998807907","","2","1","null","null","arrowup","[0.325,0.675,0.15,0.85]","","",""
"sailing-trial","169","801109","0.0-11.0-124.0","","","","false","","","","","","","","","","483.80000001192093","","303.80000001192093","","3","1","arrowright","1","arrowright","[0.675,0.325,0.85,0.15]","","",""
"sailing-trial","170","803540","0.0-11.0-125.0","","","","false","","","","","","","","","","null","","638.4000000059605","","0","1","null","null","arrowup","[0.675,0.325,0.85,0.15]","","",""
"sailing-trial","171","807006","0.0-11.0-126.0","","","","false","","","","","","","","","","456.69999998807907","","557.5999999940395","","3","0","arrowright","1","arrowright","[0.675,0.325,0.85,0.15]","","",""
"sailing-trial","172","809474","0.0-11.0-127.0","","","","false","","","","","","","","","","null","","730.6999999880791","","2","1","null","null","arrowup","[0.675,0.325,0.85,0.15]","","",""
"sailing-trial","173","813240","0.0-11.0-128.0","","","","false","","","","","","","","","","901.8000000119209","","67.39999997615814","","0","1","arrowleft","0","arrowleft","[0.675,0.325,0.85,0.15]","","",""
"sailing-trial","174","815672","0.0-11.0-129.0","","","","false","","","","","","","","","","null","","665.8000000119209","","2","1","null","null","arrowup","[0.675,0.325,0.85,0.15]","","",""
"sailing-trial","175","819824","0.0-11.0-130.0","","","","false","","","","","","","","","","479.59999999403954","","370.30000001192093","","0","1","arrowleft","0","arrowleft","[0.675,0.325,0.85,0.15]","","",""
"sailing-trial","176","822373","0.0-11.0-131.0","","","","false","","","","","","","","","","null","","774.9000000059605","","2","1","null","null","arrowup","[0.675,0.325,0.85,0.15]","","",""
"sailing-trial","177","825860","0.0-11.0-132.0","","","","false","","","","","","","","","","728.3999999761581","","134.30000001192093","","1","0","arrowleft","0","arrowright","[0.675,0.325,0.85,0.15]","","",""
"sailing-trial","178","828207","0.0-11.0-133.0","","","","false","","","","","","","","","","null","","567.5","","3","1","null","null","arrowup","[0.675,0.325,0.85,0.15]","","",""
"sailing-trial","179","831633","0.0-11.0-134.0","","","","false","","","","","","","","","","394.5","","164.2999999821186","","0","1","arrowleft","0","arrowleft","[0.675,0.325,0.85,0.15]","","",""
"sailing-trial","180","833481","0.0-11.0-135.0","","","","false","","","","","","","","","","null","","452.40000000596046","","1","0","null","null","arrowup","[0.675,0.325,0.85,0.15]","","",""
"sailing-trial","181","836890","0.0-11.0-136.0","","","","false","","","","","","","","","","511.09999999403954","","68.40000000596046","","0","1","arrowleft","0","arrowleft","[0.675,0.325,0.85,0.15]","","",""
"sailing-trial","182","840240","0.0-11.0-137.0","","","","false","","","","","","","","","","null","","1553.0999999940395","","0","1","null","null","arrowup","[0.675,0.325,0.85,0.15]","","",""
"sailing-trial","183","843655","0.0-11.0-138.0","","","","false","","","","","","","","","","480.40000000596046","","88","","0","1","arrowleft","0","arrowleft","[0.675,0.325,0.85,0.15]","","",""
"sailing-trial","184","845790","0.0-11.0-139.0","","","","false","","","","","","","","","","null","","791.9000000059605","","1","0","null","null","arrowup","[0.675,0.325,0.85,0.15]","","",""
"sailing-trial","185","849139","0.0-11.0-140.0","","","","false","","","","","","","","","","489.09999999403954","","0.4000000059604645","","0","1","arrowleft","0","arrowleft","[0.85,0.15,0.675,0.325]","","",""
"sailing-trial","186","851688","0.0-11.0-141.0","","","","false","","","","","","","","","","null","","747.5999999940395","","0","1","null","null","arrowup","[0.85,0.15,0.675,0.325]","","",""
"sailing-trial","187","855085","0.0-11.0-142.0","","","","false","","","","","","","","","","560.7999999821186","","204.59999999403954","","0","0","arrowleft","0","arrowleft","[0.85,0.15,0.675,0.325]","","",""
"sailing-trial","188","857105","0.0-11.0-143.0","","","","false","","","","","","","","","","null","","740.9000000059605","","3","0","null","null","arrowup","[0.85,0.15,0.675,0.325]","","",""
"sailing-trial","189","860558","0.0-11.0-144.0","","","","false","","","","","","","","","","492.5","","103.59999999403954","","2","1","arrowright","1","arrowleft","[0.85,0.15,0.675,0.325]","","",""
"sailing-trial","190","862904","0.0-11.0-145.0","","","","false","","","","","","","","","","null","","1069.3999999761581","","3","0","null","null","arrowup","[0.85,0.15,0.675,0.325]","","",""
"sailing-trial","191","866188","0.0-11.0-146.0","","","","false","","","","","","","","","","717.5","","82.90000000596046","","3","0","arrowright","1","arrowright","[0.85,0.15,0.675,0.325]","","",""
"sailing-trial","192","868173","0.0-11.0-147.0","","","","false","","","","","","","","","","null","","712.9000000059605","","1","0","null","null","arrowup","[0.85,0.15,0.675,0.325]","","",""
"sailing-trial","193","871891","0.0-11.0-148.0","","","","false","","","","","","","","","","512.6999999880791","","344.09999999403954","","2","1","arrowright","1","arrowleft","[0.85,0.15,0.675,0.325]","","",""
"sailing-trial","194","874488","0.0-11.0-149.0","","","","false","","","","","","","","","","null","","818.5","","0","1","null","null","arrowup","[0.85,0.15,0.675,0.325]","","",""
"sailing-trial","195","877806","0.0-11.0-150.0","","","","false","","","","","","","","","","491.5","","6.5","","2","1","arrowright","1","arrowleft","[0.85,0.15,0.675,0.325]","","",""
"sailing-trial","196","880048","0.0-11.0-151.0","","","","false","","","","","","","","","","null","","928.6000000238419","","2","0","null","null","arrowup","[0.85,0.15,0.675,0.325]","","",""
"sailing-trial","197","884271","0.0-11.0-152.0","","","","false","","","","","","","","","","488.90000000596046","","781.4000000059605","","2","1","arrowright","1","arrowleft","[0.85,0.15,0.675,0.325]","","",""
"sailing-trial","198","886522","0.0-11.0-153.0","","","","false","","","","","","","","","","null","","930.9000000059605","","1","0","null","null","arrowup","[0.85,0.15,0.675,0.325]","","",""
"sailing-trial","199","890089","0.0-11.0-154.0","","","","false","","","","","","","","","","553.8000000119209","","387.40000000596046","","2","0","arrowright","1","arrowleft","[0.85,0.15,0.675,0.325]","","",""
"sailing-trial","200","892240","0.0-11.0-155.0","","","","false","","","","","","","","","","null","","803.9000000059605","","2","0","null","null","arrowup","[0.85,0.15,0.675,0.325]","","",""
"sailing-trial","201","895844","0.0-11.0-156.0","","","","false","","","","","","","","","","566.6999999880791","","100.7999999821186","","0","1","arrowleft","0","arrowleft","[0.85,0.15,0.675,0.325]","","",""
"sailing-trial","202","898095","0.0-11.0-157.0","","","","false","","","","","","","","","","null","","805.6999999880791","","1","0","null","null","arrowup","[0.85,0.15,0.675,0.325]","","",""
"sailing-trial","203","901383","0.0-11.0-158.0","","","","false","","","","","","","","","","581","","391.2999999821186","","0","0","arrowleft","0","arrowleft","[0.15,0.85,0.325,0.675]","","",""
"sailing-trial","204","904256","0.0-11.0-159.0","","","","false","","","","","","","","","","null","","1077.699999988079","","3","1","null","null","arrowup","[0.15,0.85,0.325,0.675]","","",""
"sailing-trial","205","908444","0.0-11.0-160.0","","","","false","","","","","","","","","","1182.800000011921","","9.400000005960464","","1","1","arrowleft","0","arrowright","[0.15,0.85,0.325,0.675]","","",""
"sailing-trial","206","910499","0.0-11.0-161.0","","","","false","","","","","","","","","","null","","803.7999999821186","","0","0","null","null","arrowup","[0.15,0.85,0.325,0.675]","","",""
"sailing-trial","207","913905","0.0-11.0-162.0","","","","false","","","","","","","","","","555.5","","18.5","","3","1","arrowright","1","arrowright","[0.15,0.85,0.325,0.675]","","",""
"sailing-trial","208","916204","0.0-11.0-163.0","","","","false","","","","","","","","","","null","","534.8000000119209","","1","1","null","null","arrowup","[0.15,0.85,0.325,0.675]","","",""
"sailing-trial","209","919823","0.0-11.0-164.0","","","","false","","","","","","","","","","417.60000002384186","","339.09999999403954","","3","1","arrowright","1","arrowright","[0.15,0.85,0.325,0.675]","","",""
"sailing-trial","210","922342","0.0-11.0-165.0","","","","false","","","","","","","","","","null","","734.3000000119209","","2","1","null","null","arrowup","[0.15,0.85,0.325,0.675]","","",""
"sailing-trial","211","925625","0.0-11.0-166.0","","","","false","","","","","","","","","","601.4000000059605","","135.39999997615814","","3","0","arrowright","1","arrowright","[0.15,0.85,0.325,0.675]","","",""
"sailing-trial","212","927624","0.0-11.0-167.0","","","","false","","","","","","","","","","null","","795.1000000238419","","3","0","null","null","arrowup","[0.15,0.85,0.325,0.675]","","",""
"sailing-trial","213","931407","0.0-11.0-168.0","","","","false","","","","","","","","","","516.5","","413.7000000178814","","3","1","arrowright","1","arrowright","[0.15,0.85,0.325,0.675]","","",""
"sailing-trial","214","934041","0.0-11.0-169.0","","","","false","","","","","","","","","","null","","820.5","","1","1","null","null","arrowup","[0.15,0.85,0.325,0.675]","","",""
"sailing-trial","215","937024","0.0-11.0-170.0","","","","false","","","","","","","","","","603.6000000238419","","41.599999994039536","","3","0","arrowright","1","arrowright","[0.15,0.85,0.325,0.675]","","",""
"sailing-trial","216","938983","0.0-11.0-171.0","","","","false","","","","","","","","","","null","","724.9000000059605","","2","0","null","null","arrowup","[0.15,0.85,0.325,0.675]","","",""
"sailing-trial","217","942487","0.0-11.0-172.0","","","","false","","","","","","","","","","629.5999999940395","","65.5","","2","1","arrowright","1","arrowleft","[0.15,0.85,0.325,0.675]","","",""
"sailing-trial","218","944334","0.0-11.0-173.0","","","","false","","","","","","","","","","null","","536.5999999940395","","2","0","null","null","arrowup","[0.15,0.85,0.325,0.675]","","",""
"sailing-trial","219","947900","0.0-11.0-174.0","","","","false","","","","","","","","","","558.8000000119209","","393.40000000596046","","3","0","arrowright","1","arrowright","[0.675,0.325,0.85,0.15]","","",""
"sailing-trial","220","950421","0.0-11.0-175.0","","","","false","","","","","","","","","","null","","730.4000000059605","","2","1","null","null","arrowup","[0.675,0.325,0.85,0.15]","","",""
"sailing-trial","221","954325","0.0-11.0-176.0","","","","false","","","","","","","","","","605.3000000119209","","456.5","","0","1","arrowleft","0","arrowleft","[0.675,0.325,0.85,0.15]","","",""
"sailing-trial","222","956236","0.0-11.0-177.0","","","","false","","","","","","","","","","null","","603","","2","0","null","null","arrowup","[0.675,0.325,0.85,0.15]","","",""
"sailing-trial","223","959889","0.0-11.0-178.0","","","","false","","","","","","","","","","548.9000000059605","","236.2000000178814","","0","1","arrowleft","0","arrowleft","[0.675,0.325,0.85,0.15]","","",""
"sailing-trial","224","961987","0.0-11.0-179.0","","","","false","","","","","","","","","","null","","352.30000001192093","","2","1","null","null","arrowup","[0.675,0.325,0.85,0.15]","","",""
"sailing-trial","225","965488","0.0-11.0-180.0","","","","false","","","","","","","","","","349.80000001192093","","294.60000002384186","","0","1","arrowleft","0","arrowleft","[0.675,0.325,0.85,0.15]","","",""
"sailing-trial","226","967446","0.0-11.0-181.0","","","","false","","","","","","","","","","null","","652.8000000119209","","3","0","null","null","arrowup","[0.675,0.325,0.85,0.15]","","",""
"sailing-trial","227","971370","0.0-11.0-182.0","","","","false","","","","","","","","","","509.09999999403954","","126.30000001192093","","0","1","arrowleft","0","arrowleft","[0.675,0.325,0.85,0.15]","","",""
"sailing-trial","228","973470","0.0-11.0-183.0","","","","false","","","","","","","","","","null","","856.5","","2","0","null","null","arrowup","[0.675,0.325,0.85,0.15]","","",""
"sailing-trial","229","977069","0.0-11.0-184.0","","","","false","","","","","","","","","","517.5","","131.30000001192093","","0","1","arrowleft","0","arrowleft","[0.675,0.325,0.85,0.15]","","",""
"sailing-trial","230","978719","0.0-11.0-185.0","","","","false","","","","","","","","","","null","","410.2999999821186","","1","0","null","null","arrowup","[0.675,0.325,0.85,0.15]","","",""
"sailing-trial","231","982454","0.0-11.0-186.0","","","","false","","","","","","","","","","529.0999999940395","","784.7999999821186","","0","0","arrowleft","0","arrowleft","[0.675,0.325,0.85,0.15]","","",""
"sailing-trial","232","985221","0.0-11.0-187.0","","","","false","","","","","","","","","","null","","992.8000000119209","","2","1","null","null","arrowup","[0.675,0.325,0.85,0.15]","","",""
"sailing-trial","233","988093","0.0-11.0-188.0","","","","false","","","","","","","","","","356.09999999403954","","218.90000000596046","","0","0","arrowleft","0","arrowleft","[0.675,0.325,0.85,0.15]","","",""
"sailing-trial","234","990401","0.0-11.0-189.0","","","","false","","","","","","","","","","null","","1022","","2","0","null","null","arrowup","[0.675,0.325,0.85,0.15]","","",""
"sailing-trial","235","993453","0.0-11.0-190.0","","","","false","","","","","","","","","","525.5","","4.9000000059604645","","0","0","arrowleft","0","arrowleft","[0.675,0.325,0.85,0.15]","","",""
"sailing-trial","236","995672","0.0-11.0-191.0","","","","false","","","","","","","","","","null","","454.59999999403954","","2","1","null","null","arrowup","[0.675,0.325,0.85,0.15]","","",""
"sailing-trial","237","1000720","0.0-11.0-192.0","","","","false","","","","","","","","","","2151","","55.5","","1","1","arrowleft","0","arrowright","[0.675,0.325,0.85,0.15]","","",""
"sailing-trial","238","1002953","0.0-11.0-193.0","","","","false","","","","","","","","","","null","","456.40000000596046","","2","1","null","null","arrowup","[0.675,0.325,0.85,0.15]","","",""
"sailing-trial","239","1006168","0.0-11.0-194.0","","","","false","","","","","","","","","","556.0999999940395","","482.2000000178814","","1","0","arrowleft","0","arrowright","[0.85,0.15,0.675,0.325]","","",""
"sailing-trial","240","1008145","0.0-11.0-195.0","","","","false","","","","","","","","","","null","","780.7999999821186","","3","0","null","null","arrowup","[0.85,0.15,0.675,0.325]","","",""
"sailing-trial","241","1011427","0.0-11.0-196.0","","","","false","","","","","","","","","","588.2999999821186","","411.09999999403954","","1","0","arrowleft","0","arrowright","[0.85,0.15,0.675,0.325]","","",""
"sailing-trial","242","1013953","0.0-11.0-197.0","","","","false","","","","","","","","","","null","","848.8000000119209","","3","1","null","null","arrowup","[0.85,0.15,0.675,0.325]","","",""
"sailing-trial","243","1017413","0.0-11.0-198.0","","","","false","","","","","","","","","","560.9000000059605","","392.69999998807907","","2","0","arrowright","1","arrowleft","[0.85,0.15,0.675,0.325]","","",""
"sailing-trial","244","1019206","0.0-11.0-199.0","","","","false","","","","","","","","","","null","","518.0999999940395","","1","0","null","null","arrowup","[0.85,0.15,0.675,0.325]","","",""
"sailing-trial","245","1022346","0.0-11.0-200.0","","","","false","","","","","","","","","","509.19999998807907","","25.900000005960464","","3","0","arrowright","1","arrowright","[0.85,0.15,0.675,0.325]","","",""
"sailing-trial","246","1024348","0.0-11.0-201.0","","","","false","","","","","","","","","","null","","701.6000000238419","","1","0","null","null","arrowup","[0.85,0.15,0.675,0.325]","","",""
"sailing-trial","247","1027735","0.0-11.0-202.0","","","","false","","","","","","","","","","550.3000000119209","","140.80000001192093","","3","0","arrowright","1","arrowright","[0.85,0.15,0.675,0.325]","","",""
"sailing-trial","248","1030421","0.0-11.0-203.0","","","","false","","","","","","","","","","null","","1009.7000000178814","","0","1","null","null","arrowup","[0.85,0.15,0.675,0.325]","","",""
"sailing-trial","249","1034101","0.0-11.0-204.0","","","","false","","","","","","","","","","503.90000000596046","","348.39999997615814","","0","1","arrowleft","0","arrowleft","[0.85,0.15,0.675,0.325]","","",""
"sailing-trial","250","1036719","0.0-11.0-205.0","","","","false","","","","","","","","","","null","","801.0999999940395","","0","1","null","null","arrowup","[0.85,0.15,0.675,0.325]","","",""
"sailing-trial","251","1040506","0.0-11.0-206.0","","","","false","","","","","","","","","","544.0999999940395","","392.19999998807907","","0","1","arrowleft","0","arrowleft","[0.85,0.15,0.675,0.325]","","",""
"sailing-trial","252","1043019","0.0-11.0-207.0","","","","false","","","","","","","","","","null","","765.1999999880791","","2","1","null","null","arrowup","[0.85,0.15,0.675,0.325]","","",""
"sailing-trial","253","1046951","0.0-11.0-208.0","","","","false","","","","","","","","","","513.3000000119209","","370.69999998807907","","0","1","arrowleft","0","arrowleft","[0.85,0.15,0.675,0.325]","","",""
"sailing-trial","254","1049144","0.0-11.0-209.0","","","","false","","","","","","","","","","null","","900","","3","0","null","null","arrowup","[0.85,0.15,0.675,0.325]","","",""
"sailing-trial","255","1052902","0.0-11.0-210.0","","","","false","","","","","","","","","","584.0999999940395","","253.5","","0","1","arrowleft","0","arrowleft","[0.85,0.15,0.675,0.325]","","",""
"sailing-trial","256","1054968","0.0-11.0-211.0","","","","false","","","","","","","","","","null","","362.90000000596046","","0","1","null","null","arrowup","[0.85,0.15,0.675,0.325]","","",""
"sailing-trial","257","1057686","0.0-11.0-212.0","","","","false","","","","","","","","","","379.19999998807907","","85.5","","0","0","arrowleft","0","arrowleft","[0.675,0.325,0.85,0.15]","","",""
"sailing-trial","258","1059719","0.0-11.0-213.0","","","","false","","","","","","","","","","null","","489.10000002384186","","0","1","null","null","arrowup","[0.675,0.325,0.85,0.15]","","",""
"sailing-trial","259","1063350","0.0-11.0-214.0","","","","false","","","","","","","","","","428.7000000178814","","371.19999998807907","","0","1","arrowleft","0","arrowleft","[0.675,0.325,0.85,0.15]","","",""
"sailing-trial","260","1065534","0.0-11.0-215.0","","","","false","","","","","","","","","","null","","450.80000001192093","","0","1","null","null","arrowup","[0.675,0.325,0.85,0.15]","","",""
"sailing-trial","261","1068669","0.0-11.0-216.0","","","","false","","","","","","","","","","353.2000000178814","","54.5","","0","1","arrowleft","0","arrowleft","[0.675,0.325,0.85,0.15]","","",""
"sailing-trial","262","1070870","0.0-11.0-217.0","","","","false","","","","","","","","","","null","","453.59999999403954","","0","1","null","null","arrowup","[0.675,0.325,0.85,0.15]","","",""
"sailing-trial","263","1074402","0.0-11.0-218.0","","","","false","","","","","","","","","","416.69999998807907","","303.19999998807907","","0","1","arrowleft","0","arrowleft","[0.675,0.325,0.85,0.15]","","",""
"sailing-trial","264","1076502","0.0-11.0-219.0","","","","false","","","","","","","","","","null","","477.7000000178814","","2","1","null","null","arrowup","[0.675,0.325,0.85,0.15]","","",""
"sailing-trial","265","1079304","0.0-11.0-220.0","","","","false","","","","","","","","","","399.2999999821186","","70.19999998807907","","0","0","arrowleft","0","arrowleft","[0.675,0.325,0.85,0.15]","","",""
"sailing-trial","266","1081283","0.0-11.0-221.0","","","","false","","","","","","","","","","null","","751.7999999821186","","1","0","null","null","arrowup","[0.675,0.325,0.85,0.15]","","",""
"sailing-trial","267","1084719","0.0-11.0-222.0","","","","false","","","","","","","","","","674.1999999880791","","436.59999999403954","","3","0","arrowright","1","arrowright","[0.675,0.325,0.85,0.15]","","",""
"sailing-trial","268","1087167","0.0-11.0-223.0","","","","false","","","","","","","","","","null","","742.7999999821186","","2","1","null","null","arrowup","[0.675,0.325,0.85,0.15]","","",""
"sailing-trial","269","1091029","0.0-11.0-224.0","","","","false","","","","","","","","","","718.8000000119209","","104.40000000596046","","2","0","arrowright","1","arrowleft","[0.675,0.325,0.85,0.15]","","",""
"sailing-trial","270","1093092","0.0-11.0-225.0","","","","false","","","","","","","","","","null","","789.8000000119209","","1","0","null","null","arrowup","[0.675,0.325,0.85,0.15]","","",""
"sailing-trial","271","1095987","0.0-11.0-226.0","","","","false","","","","","","","","","","512.5999999940395","","55.80000001192093","","3","0","arrowright","1","arrowright","[0.675,0.325,0.85,0.15]","","",""
"sailing-trial","272","1098366","0.0-11.0-227.0","","","","false","","","","","","","","","","null","","712.4000000059605","","2","1","null","null","arrowup","[0.675,0.325,0.85,0.15]","","",""
"sailing-trial","273","1101885","0.0-11.0-228.0","","","","false","","","","","","","","","","364","","354.19999998807907","","0","1","arrowleft","0","arrowleft","[0.675,0.325,0.85,0.15]","","",""
"sailing-trial","274","1103708","0.0-11.0-229.0","","","","false","","","","","","","","","","null","","575.7000000178814","","3","0","null","null","arrowup","[0.675,0.325,0.85,0.15]","","",""
"sailing-trial","275","1107423","0.0-11.0-230.0","","","","false","","","","","","","","","","652.5","","318.5","","0","1","arrowleft","0","arrowleft","[0.85,0.15,0.675,0.325]","","",""
"sailing-trial","276","1109443","0.0-11.0-231.0","","","","false","","","","","","","","","","null","","738.7000000178814","","1","0","null","null","arrowup","[0.85,0.15,0.675,0.325]","","",""
"sailing-trial","277","1113251","0.0-11.0-232.0","","","","false","","","","","","","","","","547.5","","380","","0","1","arrowleft","0","arrowleft","[0.85,0.15,0.675,0.325]","","",""
"sailing-trial","278","1115384","0.0-11.0-233.0","","","","false","","","","","","","","","","null","","506.30000001192093","","2","1","null","null","arrowup","[0.85,0.15,0.675,0.325]","","",""
"sailing-trial","279","1118952","0.0-11.0-234.0","","","","false","","","","","","","","","","395","","353.7999999821186","","0","1","arrowleft","0","arrowleft","[0.85,0.15,0.675,0.325]","","",""
"sailing-trial","280","1121350","0.0-11.0-235.0","","","","false","","","","","","","","","","null","","517.7999999821186","","2","1","null","null","arrowup","[0.85,0.15,0.675,0.325]","","",""
"sailing-trial","281","1124665","0.0-11.0-236.0","","","","false","","","","","","","","","","560.4000000059605","","69","","0","1","arrowleft","0","arrowleft","[0.85,0.15,0.675,0.325]","","",""
"sailing-trial","282","1126530","0.0-11.0-237.0","","","","false","","","","","","","","","","null","","624.7999999821186","","3","0","null","null","arrowup","[0.85,0.15,0.675,0.325]","","",""
"sailing-trial","283","1130383","0.0-11.0-238.0","","","","false","","","","","","","","","","752.5","","309.59999999403954","","0","1","arrowleft","0","arrowleft","[0.85,0.15,0.675,0.325]","","",""
"sailing-trial","284","1132331","0.0-11.0-239.0","","","","false","","","","","","","","","","null","","695.4000000059605","","2","0","null","null","arrowup","[0.85,0.15,0.675,0.325]","","",""
"sailing-trial","285","1135451","0.0-11.0-240.0","","","","false","","","","","","","","","","516.2999999821186","","263.90000000596046","","0","0","arrowleft","0","arrowleft","[0.85,0.15,0.675,0.325]","","",""
"sailing-trial","286","1137734","0.0-11.0-241.0","","","","false","","","","","","","","","","null","","680.0999999940395","","0","1","null","null","arrowup","[0.85,0.15,0.675,0.325]","","",""
"sailing-trial","287","1140841","0.0-11.0-242.0","","","","false","","","","","","","","","","515.5","","358.2000000178814","","2","0","arrowright","1","arrowleft","[0.85,0.15,0.675,0.325]","","",""
"sailing-trial","288","1143265","0.0-11.0-243.0","","","","false","","","","","","","","","","null","","783.2999999821186","","3","1","null","null","arrowup","[0.85,0.15,0.675,0.325]","","",""
"sailing-trial","289","1146392","0.0-11.0-244.0","","","","false","","","","","","","","","","589","","29.900000005960464","","3","0","arrowright","1","arrowright","[0.85,0.15,0.675,0.325]","","",""
"sailing-trial","290","1148493","0.0-11.0-245.0","","","","false","","","","","","","","","","null","","827.7000000178814","","1","0","null","null","arrowup","[0.85,0.15,0.675,0.325]","","",""
"sailing-trial","291","1151352","0.0-11.0-246.0","","","","false","","","","","","","","","","492.80000001192093","","59.79999998211861","","2","0","arrowright","1","arrowleft","[0.85,0.15,0.675,0.325]","","",""
"sailing-trial","292","1153485","0.0-11.0-247.0","","","","false","","","","","","","","","","null","","874.5999999940395","","2","0","null","null","arrowup","[0.85,0.15,0.675,0.325]","","",""
"sailing-trial","293","1156348","0.0-11.0-248.0","","","","false","","","","","","","","","","540.5","","23.099999994039536","","0","0","arrowleft","0","arrowleft","[0.675,0.325,0.85,0.15]","","",""
"sailing-trial","294","1158566","0.0-11.0-249.0","","","","false","","","","","","","","","","null","","924.5","","3","0","null","null","arrowup","[0.675,0.325,0.85,0.15]","","",""
"sailing-trial","295","1161985","0.0-11.0-250.0","","","","false","","","","","","","","","","772.7999999821186","","355.90000000596046","","1","0","arrowleft","0","arrowright","[0.675,0.325,0.85,0.15]","","",""
"sailing-trial","296","1164100","0.0-11.0-251.0","","","","false","","","","","","","","","","null","","982.9000000059605","","1","0","null","null","arrowup","[0.675,0.325,0.85,0.15]","","",""
"sailing-trial","297","1168068","0.0-11.0-252.0","","","","false","","","","","","","","","","782.4000000059605","","358.80000001192093","","2","1","arrowright","1","arrowleft","[0.675,0.325,0.85,0.15]","","",""
"sailing-trial","298","1169903","0.0-11.0-253.0","","","","false","","","","","","","","","","null","","561.9000000059605","","0","0","null","null","arrowup","[0.675,0.325,0.85,0.15]","","",""
"sailing-trial","299","1173277","0.0-11.0-254.0","","","","false","","","","","","","","","","497.59999999403954","","8","","3","0","arrowright","1","arrowright","[0.675,0.325,0.85,0.15]","","",""
"sailing-trial","300","1175151","0.0-11.0-255.0","","","","false","","","","","","","","","","null","","639.8000000119209","","3","0","null","null","arrowup","[0.675,0.325,0.85,0.15]","","",""
"sailing-trial","301","1178884","0.0-11.0-256.0","","","","false","","","","","","","","","","534","","366.80000001192093","","0","1","arrowleft","0","arrowleft","[0.675,0.325,0.85,0.15]","","",""
"sailing-trial","302","1181416","0.0-11.0-257.0","","","","false","","","","","","","","","","null","","734.1999999880791","","3","1","null","null","arrowup","[0.675,0.325,0.85,0.15]","","",""
"sailing-trial","303","1184949","0.0-11.0-258.0","","","","false","","","","","","","","","","380.59999999403954","","322.2000000178814","","0","1","arrowleft","0","arrowleft","[0.675,0.325,0.85,0.15]","","",""
"sailing-trial","304","1186541","0.0-11.0-259.0","","","","false","","","","","","","","","","null","","333.2999999821186","","3","0","null","null","arrowup","[0.675,0.325,0.85,0.15]","","",""
"sailing-trial","305","1190008","0.0-11.0-260.0","","","","false","","","","","","","","","","639.2000000178814","","238","","0","0","arrowleft","0","arrowleft","[0.675,0.325,0.85,0.15]","","",""
"sailing-trial","306","1191916","0.0-11.0-261.0","","","","false","","","","","","","","","","null","","699.5","","3","0","null","null","arrowup","[0.675,0.325,0.85,0.15]","","",""
"sailing-trial","307","1195597","0.0-11.0-262.0","","","","false","","","","","","","","","","573.7000000178814","","305.39999997615814","","2","1","arrowright","1","arrowleft","[0.675,0.325,0.85,0.15]","","",""
"sailing-trial","308","1197947","0.0-11.0-263.0","","","","false","","","","","","","","","","null","","598.1999999880791","","3","1","null","null","arrowup","[0.675,0.325,0.85,0.15]","","",""
"sailing-trial","309","1202563","0.0-11.0-264.0","","","","false","","","","","","","","","","571.0999999940395","","1331.199999988079","","2","1","arrowright","1","arrowleft","[0.15,0.85,0.325,0.675]","","",""
"sailing-trial","310","1204778","0.0-11.0-265.0","","","","false","","","","","","","","","","null","","961.5","","2","0","null","null","arrowup","[0.15,0.85,0.325,0.675]","","",""
"sailing-trial","311","1208027","0.0-11.0-266.0","","","","false","","","","","","","","","","532.8000000119209","","340.89999997615814","","2","0","arrowright","1","arrowleft","[0.15,0.85,0.325,0.675]","","",""
"sailing-trial","312","1210623","0.0-11.0-267.0","","","","false","","","","","","","","","","null","","1299.2999999821186","","0","0","null","null","arrowup","[0.15,0.85,0.325,0.675]","","",""
"sailing-trial","313","1213959","0.0-11.0-268.0","","","","false","","","","","","","","","","544.2000000178814","","191.19999998807907","","0","0","arrowleft","0","arrowleft","[0.15,0.85,0.325,0.675]","","",""
"sailing-trial","314","1216463","0.0-11.0-269.0","","","","false","","","","","","","","","","null","","738.6999999880791","","1","1","null","null","arrowup","[0.15,0.85,0.325,0.675]","","",""
"sailing-trial","315","1219528","0.0-11.0-270.0","","","","false","","","","","","","","","","560.5999999940395","","176.80000001192093","","0","0","arrowleft","0","arrowleft","[0.15,0.85,0.325,0.675]","","",""
"sailing-trial","316","1222131","0.0-11.0-271.0","","","","false","","","","","","","","","","null","","853.7999999821186","","2","1","null","null","arrowup","[0.15,0.85,0.325,0.675]","","",""
"sailing-trial","317","1225449","0.0-11.0-272.0","","","","false","","","","","","","","","","460.40000000596046","","8.5","","1","1","arrowleft","0","arrowright","[0.15,0.85,0.325,0.675]","","",""
"sailing-trial","318","1227110","0.0-11.0-273.0","","","","false","","","","","","","","","","null","","359.7999999821186","","0","0","null","null","arrowup","[0.15,0.85,0.325,0.675]","","",""
"sailing-trial","319","1230848","0.0-11.0-274.0","","","","false","","","","","","","","","","619.8000000119209","","322","","1","1","arrowleft","0","arrowright","[0.15,0.85,0.325,0.675]","","",""
"sailing-trial","320","1232897","0.0-11.0-275.0","","","","false","","","","","","","","","","null","","267.30000001192093","","1","1","null","null","arrowup","[0.15,0.85,0.325,0.675]","","",""
"sailing-trial","321","1236347","0.0-11.0-276.0","","","","false","","","","","","","","","","645.4000000059605","","14.899999976158142","","1","1","arrowleft","0","arrowright","[0.15,0.85,0.325,0.675]","","",""
"sailing-trial","322","1238247","0.0-11.0-277.0","","","","false","","","","","","","","","","null","","273.39999997615814","","1","1","null","null","arrowup","[0.15,0.85,0.325,0.675]","","",""
"sailing-trial","323","1241713","0.0-11.0-278.0","","","","false","","","","","","","","","","432.80000001192093","","413.09999999403954","","1","1","arrowleft","0","arrowright","[0.15,0.85,0.325,0.675]","","",""
"sailing-trial","324","1243188","0.0-11.0-279.0","","","","false","","","","","","","","","","null","","368.39999997615814","","2","0","null","null","arrowup","[0.15,0.85,0.325,0.675]","","",""
"sailing-trial","325","1247005","0.0-11.0-280.0","","","","false","","","","","","","","","","611.7000000178814","","370.19999998807907","","1","1","arrowleft","0","arrowright","[0.15,0.85,0.325,0.675]","","",""
"sailing-trial","326","1248791","0.0-11.0-281.0","","","","false","","","","","","","","","","null","","492.59999999403954","","0","0","null","null","arrowup","[0.15,0.85,0.325,0.675]","","",""
"sailing-trial","327","1252848","0.0-11.0-282.0","","","","false","","","","","","","","","","870","","423.5","","1","1","arrowleft","0","arrowright","[0.15,0.85,0.325,0.675]","","",""
"sailing-trial","328","1254526","0.0-11.0-283.0","","","","false","","","","","","","","","","null","","434.2999999821186","","0","0","null","null","arrowup","[0.15,0.85,0.325,0.675]","","",""
"sailing-trial","329","1258149","0.0-11.0-284.0","","","","false","","","","","","","","","","539.7000000178814","","319.2999999821186","","1","1","arrowleft","0","arrowright","[0.15,0.85,0.325,0.675]","","",""
"sailing-trial","330","1260395","0.0-11.0-285.0","","","","false","","","","","","","","","","null","","523.9000000059605","","0","1","null","null","arrowup","[0.15,0.85,0.325,0.675]","","",""
"sailing-trial","331","1264167","0.0-11.0-286.0","","","","false","","","","","","","","","","343.40000000596046","","679.5","","1","1","arrowleft","0","arrowright","[0.325,0.675,0.15,0.85]","","",""
"sailing-trial","332","1265618","0.0-11.0-287.0","","","","false","","","","","","","","","","null","","303.90000000596046","","1","0","null","null","arrowup","[0.325,0.675,0.15,0.85]","","",""
"sailing-trial","333","1269630","0.0-11.0-288.0","","","","false","","","","","","","","","","493.59999999403954","","737.2000000178814","","1","1","arrowleft","0","arrowright","[0.325,0.675,0.15,0.85]","","",""
"sailing-trial","334","1272081","0.0-11.0-289.0","","","","false","","","","","","","","","","null","","715.9000000059605","","3","1","null","null","arrowup","[0.325,0.675,0.15,0.85]","","",""
"sailing-trial","335","1275629","0.0-11.0-290.0","","","","false","","","","","","","","","","333.5","","418","","1","1","arrowleft","0","arrowright","[0.325,0.675,0.15,0.85]","","",""
"sailing-trial","336","1277122","0.0-11.0-291.0","","","","false","","","","","","","","","","null","","103.10000002384186","","2","0","null","null","arrowup","[0.325,0.675,0.15,0.85]","","",""
"sailing-trial","337","1280085","0.0-11.0-292.0","","","","false","","","","","","","","","","456.5","","383.2999999821186","","1","0","arrowleft","0","arrowright","[0.325,0.675,0.15,0.85]","","",""
"sailing-trial","338","1282530","0.0-11.0-293.0","","","","false","","","","","","","","","","null","","781.2999999821186","","3","1","null","null","arrowup","[0.325,0.675,0.15,0.85]","","",""
"sailing-trial","339","1285313","0.0-11.0-294.0","","","","false","","","","","","","","","","365.2000000178814","","157.69999998807907","","0","0","arrowleft","0","arrowleft","[0.325,0.675,0.15,0.85]","","",""
"sailing-trial","340","1287093","0.0-11.0-295.0","","","","false","","","","","","","","","","null","","629.5","","3","0","null","null","arrowup","[0.325,0.675,0.15,0.85]","","",""
"sailing-trial","341","1290563","0.0-11.0-296.0","","","","false","","","","","","","","","","969.3000000119209","","350.7999999821186","","2","0","arrowright","1","arrowleft","[0.325,0.675,0.15,0.85]","","",""
"sailing-trial","342","1292574","0.0-11.0-297.0","","","","false","","","","","","","","","","null","","844.8000000119209","","2","0","null","null","arrowup","[0.325,0.675,0.15,0.85]","","",""
"sailing-trial","343","1295934","0.0-11.0-298.0","","","","false","","","","","","","","","","532.5","","463.80000001192093","","3","0","arrowright","1","arrowright","[0.325,0.675,0.15,0.85]","","",""
"sailing-trial","344","1298665","0.0-11.0-299.0","","","","false","","","","","","","","","","null","","1069.9000000059605","","1","1","null","null","arrowup","[0.325,0.675,0.15,0.85]","","",""
"sailing-trial","345","1301854","0.0-11.0-300.0","","","","false","","","","","","","","","","265.10000002384186","","292.19999998807907","","3","0","arrowright","1","arrowright","[0.325,0.675,0.15,0.85]","","",""
"sailing-trial","346","1304114","0.0-11.0-301.0","","","","false","","","","","","","","","","null","","698.5","","1","1","null","null","arrowup","[0.325,0.675,0.15,0.85]","","",""
"sailing-trial","347","1307028","0.0-11.0-302.0","","","","false","","","","","","","","","","413.90000000596046","","21.80000001192093","","0","0","arrowleft","0","arrowleft","[0.325,0.675,0.15,0.85]","","",""
"sailing-trial","348","1309314","0.0-11.0-303.0","","","","false","","","","","","","","","","null","","632","","3","1","null","null","arrowup","[0.325,0.675,0.15,0.85]","","",""
"sailing-trial","349","1312768","0.0-11.0-304.0","","","","false","","","","","","","","","","452.60000002384186","","172","","3","1","arrowright","1","arrowright","[0.325,0.675,0.15,0.85]","","",""
"sailing-trial","350","1315164","0.0-11.0-305.0","","","","false","","","","","","","","","","null","","623.9000000059605","","0","1","null","null","arrowup","[0.325,0.675,0.15,0.85]","","",""
"sailing-trial","351","1318895","0.0-11.0-306.0","","","","false","","","","","","","","","","531.2000000178814","","373.7000000178814","","3","1","arrowright","1","arrowright","[0.325,0.675,0.15,0.85]","","",""
"sailing-trial","352","1320788","0.0-11.0-307.0","","","","false","","","","","","","","","","null","","611.1000000238419","","1","0","null","null","arrowup","[0.325,0.675,0.15,0.85]","","",""
"sailing-trial","353","1324564","0.0-11.0-308.0","","","","false","","","","","","","","","","770.5999999940395","","340.39999997615814","","3","1","arrowright","1","arrowright","[0.325,0.675,0.15,0.85]","","",""
"sailing-trial","354","1327264","0.0-11.0-309.0","","","","false","","","","","","","","","","null","","958.8999999761581","","0","1","null","null","arrowup","[0.325,0.675,0.15,0.85]","","",""
"sailing-trial","355","1331211","0.0-11.0-310.0","","","","false","","","","","","","","","","540.2999999821186","","366","","2","1","arrowright","1","arrowleft","[0.15,0.85,0.325,0.675]","","",""
"sailing-trial","356","1333567","0.0-11.0-311.0","","","","false","","","","","","","","","","null","","669.0999999940395","","3","1","null","null","arrowup","[0.15,0.85,0.325,0.675]","","",""
"sailing-trial","357","1337344","0.0-11.0-312.0","","","","false","","","","","","","","","","1136.4000000059605","","350.59999999403954","","2","0","arrowright","1","arrowleft","[0.15,0.85,0.325,0.675]","","",""
"sailing-trial","358","1339846","0.0-11.0-313.0","","","","false","","","","","","","","","","null","","835","","1","1","null","null","arrowup","[0.15,0.85,0.325,0.675]","","",""
"sailing-trial","359","1342568","0.0-11.0-314.0","","","","false","","","","","","","","","","394.90000000596046","","43.89999997615814","","3","0","arrowright","1","arrowright","[0.15,0.85,0.325,0.675]","","",""
"sailing-trial","360","1344630","0.0-11.0-315.0","","","","false","","","","","","","","","","null","","802.4000000059605","","0","0","null","null","arrowup","[0.15,0.85,0.325,0.675]","","",""
"sailing-trial","361","1347814","0.0-11.0-316.0","","","","false","","","","","","","","","","476.5","","23.200000017881393","","1","1","arrowleft","0","arrowright","[0.15,0.85,0.325,0.675]","","",""
"sailing-trial","362","1350196","0.0-11.0-317.0","","","","false","","","","","","","","","","null","","563","","0","1","null","null","arrowup","[0.15,0.85,0.325,0.675]","","",""
"sailing-trial","363","1353278","0.0-11.0-318.0","","","","false","","","","","","","","","","718.8999999761581","","85","","0","0","arrowleft","0","arrowleft","[0.15,0.85,0.325,0.675]","","",""
"sailing-trial","364","1355697","0.0-11.0-319.0","","","","false","","","","","","","","","","null","","823.1000000238419","","0","1","null","null","arrowup","[0.15,0.85,0.325,0.675]","","",""
"sailing-trial","365","1358566","0.0-11.0-320.0","","","","false","","","","","","","","","","588.2999999821186","","31.899999976158142","","1","0","arrowleft","0","arrowright","[0.15,0.85,0.325,0.675]","","",""
"sailing-trial","366","1361031","0.0-11.0-321.0","","","","false","","","","","","","","","","null","","780.7000000178814","","3","1","null","null","arrowup","[0.15,0.85,0.325,0.675]","","",""
"sailing-trial","367","1363854","0.0-11.0-322.0","","","","false","","","","","","","","","","395.19999998807907","","141.69999998807907","","0","0","arrowleft","0","arrowleft","[0.15,0.85,0.325,0.675]","","",""
"sailing-trial","368","1366145","0.0-11.0-323.0","","","","false","","","","","","","","","","null","","665.8999999761581","","1","1","null","null","arrowup","[0.15,0.85,0.325,0.675]","","",""
"sailing-trial","369","1369405","0.0-11.0-324.0","","","","false","","","","","","","","","","556.3000000119209","","388.30000001192093","","1","0","arrowleft","0","arrowright","[0.15,0.85,0.325,0.675]","","",""
"sailing-trial","370","1371289","0.0-11.0-325.0","","","","false","","","","","","","","","","null","","688.5999999940395","","0","0","null","null","arrowup","[0.15,0.85,0.325,0.675]","","",""
"sailing-trial","371","1374727","0.0-11.0-326.0","","","","false","","","","","","","","","","500.40000000596046","","9.300000011920929","","2","1","arrowright","1","arrowleft","[0.15,0.85,0.325,0.675]","","",""
"sailing-trial","372","1376996","0.0-11.0-327.0","","","","false","","","","","","","","","","null","","620.5","","3","1","null","null","arrowup","[0.15,0.85,0.325,0.675]","","",""
"sailing-trial","373","1380352","0.0-11.0-328.0","","","","false","","","","","","","","","","729.2000000178814","","373","","2","0","arrowright","1","arrowleft","[0.325,0.675,0.15,0.85]","","",""
"sailing-trial","374","1382089","0.0-11.0-329.0","","","","false","","","","","","","","","","null","","608.2000000178814","","0","0","null","null","arrowup","[0.325,0.675,0.15,0.85]","","",""
"sailing-trial","375","1385695","0.0-11.0-330.0","","","","false","","","","","","","","","","513.0999999940395","","342.39999997615814","","3","1","arrowright","1","arrowright","[0.325,0.675,0.15,0.85]","","",""
"sailing-trial","376","1387646","0.0-11.0-331.0","","","","false","","","","","","","","","","null","","674.8000000119209","","2","0","null","null","arrowup","[0.325,0.675,0.15,0.85]","","",""
"sailing-trial","377","1391446","0.0-11.0-332.0","","","","false","","","","","","","","","","619.5999999940395","","348.2000000178814","","3","1","arrowright","1","arrowright","[0.325,0.675,0.15,0.85]","","",""
"sailing-trial","378","1393268","0.0-11.0-333.0","","","","false","","","","","","","","","","null","","679.0999999940395","","2","0","null","null","arrowup","[0.325,0.675,0.15,0.85]","","",""
"sailing-trial","379","1396236","0.0-11.0-334.0","","","","false","","","","","","","","","","664.6999999880791","","69.80000001192093","","2","0","arrowright","1","arrowleft","[0.325,0.675,0.15,0.85]","","",""
"sailing-trial","380","1397948","0.0-11.0-335.0","","","","false","","","","","","","","","","null","","528.9000000059605","","2","0","null","null","arrowup","[0.325,0.675,0.15,0.85]","","",""
"sailing-trial","381","1401195","0.0-11.0-336.0","","","","false","","","","","","","","","","504.80000001192093","","28.5","","3","1","arrowright","1","arrowright","[0.325,0.675,0.15,0.85]","","",""
"sailing-trial","382","1403326","0.0-11.0-337.0","","","","false","","","","","","","","","","null","","560.2999999821186","","3","1","null","null","arrowup","[0.325,0.675,0.15,0.85]","","",""
"sailing-trial","383","1406611","0.0-11.0-338.0","","","","false","","","","","","","","","","501.90000000596046","","27.30000001192093","","3","1","arrowright","1","arrowright","[0.325,0.675,0.15,0.85]","","",""
"sailing-trial","384","1408330","0.0-11.0-339.0","","","","false","","","","","","","","","","null","","599.1000000238419","","2","0","null","null","arrowup","[0.325,0.675,0.15,0.85]","","",""
"sailing-trial","385","1411676","0.0-11.0-340.0","","","","false","","","","","","","","","","570","","23","","3","1","arrowright","1","arrowright","[0.325,0.675,0.15,0.85]","","",""
"sailing-trial","386","1413198","0.0-11.0-341.0","","","","false","","","","","","","","","","null","","381.39999997615814","","0","0","null","null","arrowup","[0.325,0.675,0.15,0.85]","","",""
"sailing-trial","387","1416417","0.0-11.0-342.0","","","","false","","","","","","","","","","551.6000000238419","","376.69999998807907","","3","0","arrowright","1","arrowright","[0.325,0.675,0.15,0.85]","","",""
"sailing-trial","388","1419047","0.0-11.0-343.0","","","","false","","","","","","","","","","null","","987.8999999761581","","3","1","null","null","arrowup","[0.325,0.675,0.15,0.85]","","",""
"sailing-trial","389","1421970","0.0-11.0-344.0","","","","false","","","","","","","","","","293.7000000178814","","235.7999999821186","","0","0","arrowleft","0","arrowleft","[0.15,0.85,0.325,0.675]","","",""
"sailing-trial","390","1424107","0.0-11.0-345.0","","","","false","","","","","","","","","","null","","854.3000000119209","","0","0","null","null","arrowup","[0.15,0.85,0.325,0.675]","","",""
"sailing-trial","391","1428592","0.0-11.0-346.0","","","","false","","","","","","","","","","1013.4000000059605","","398.69999998807907","","1","1","arrowleft","0","arrowright","[0.15,0.85,0.325,0.675]","","",""
"sailing-trial","392","1430638","0.0-11.0-347.0","","","","false","","","","","","","","","","null","","804.6999999880791","","0","0","null","null","arrowup","[0.15,0.85,0.325,0.675]","","",""
"sailing-trial","393","1434243","0.0-11.0-348.0","","","","false","","","","","","","","","","703.1000000238419","","141.30000001192093","","1","1","arrowleft","0","arrowright","[0.15,0.85,0.325,0.675]","","",""
"sailing-trial","394","1436578","0.0-11.0-349.0","","","","false","","","","","","","","","","null","","547.0999999940395","","0","1","null","null","arrowup","[0.15,0.85,0.325,0.675]","","",""
"sailing-trial","395","1440209","0.0-11.0-350.0","","","","false","","","","","","","","","","498.5","","405.19999998807907","","1","1","arrowleft","0","arrowright","[0.15,0.85,0.325,0.675]","","",""
"sailing-trial","396","1441773","0.0-11.0-351.0","","","","false","","","","","","","","","","null","","377.2000000178814","","1","0","null","null","arrowup","[0.15,0.85,0.325,0.675]","","",""
"sailing-trial","397","1445411","0.0-11.0-352.0","","","","false","","","","","","","","","","526.3000000119209","","321.09999999403954","","0","1","arrowleft","0","arrowleft","[0.15,0.85,0.325,0.675]","","",""
"sailing-trial","398","1447427","0.0-11.0-353.0","","","","false","","","","","","","","","","null","","881.8000000119209","","2","0","null","null","arrowup","[0.15,0.85,0.325,0.675]","","",""
"sailing-trial","399","1450520","0.0-11.0-354.0","","","","false","","","","","","","","","","514","","204.19999998807907","","0","0","arrowleft","0","arrowleft","[0.15,0.85,0.325,0.675]","","",""
"sailing-trial","400","1452711","0.0-11.0-355.0","","","","false","","","","","","","","","","null","","882.5999999940395","","0","0","null","null","arrowup","[0.15,0.85,0.325,0.675]","","",""
"sailing-trial","401","1456011","0.0-11.0-356.0","","","","false","","","","","","","","","","463.80000001192093","","373.5","","2","0","arrowright","1","arrowleft","[0.15,0.85,0.325,0.675]","","",""
"sailing-trial","402","1458563","0.0-11.0-357.0","","","","false","","","","","","","","","","null","","761.8999999761581","","1","1","null","null","arrowup","[0.15,0.85,0.325,0.675]","","",""
"sailing-trial","403","1462045","0.0-11.0-358.0","","","","false","","","","","","","","","","716.8000000119209","","273","","2","0","arrowright","1","arrowleft","[0.15,0.85,0.325,0.675]","","",""
"sailing-trial","404","1464559","0.0-11.0-359.0","","","","false","","","","","","","","","","null","","802.9000000059605","","3","1","null","null","arrowup","[0.15,0.85,0.325,0.675]","","",""
"sailing-trial","405","1467448","0.0-11.0-360.0","","","","false","","","","","","","","","","545.6000000238419","","67.90000000596046","","3","0","arrowright","1","arrowright","[0.15,0.85,0.325,0.675]","","",""
"sailing-trial","406","1469496","0.0-11.0-361.0","","","","false","","","","","","","","","","null","","816.6999999880791","","0","0","null","null","arrowup","[0.15,0.85,0.325,0.675]","","",""
"sailing-trial","407","1473469","0.0-11.0-362.0","","","","false","","","","","","","","","","1104.5","","329.09999999403954","","2","0","arrowright","1","arrowleft","[0.15,0.85,0.325,0.675]","","",""
"sailing-trial","408","1476042","0.0-11.0-363.0","","","","false","","","","","","","","","","null","","836.9000000059605","","3","1","null","null","arrowup","[0.15,0.85,0.325,0.675]","","",""
"sailing-trial","409","1479007","0.0-11.0-364.0","","","","false","","","","","","","","","","556.2999999821186","","146.89999997615814","","3","0","arrowright","1","arrowright","[0.325,0.675,0.15,0.85]","","",""
"sailing-trial","410","1480941","0.0-11.0-365.0","","","","false","","","","","","","","","","null","","703.5","","1","0","null","null","arrowup","[0.325,0.675,0.15,0.85]","","",""
"sailing-trial","411","1485546","0.0-11.0-366.0","","","","false","","","","","","","","","","1041.5","","1219.5","","2","0","arrowright","1","arrowleft","[0.325,0.675,0.15,0.85]","","",""
"sailing-trial","412","1487154","0.0-11.0-367.0","","","","false","","","","","","","","","","null","","539.0999999940395","","2","0","null","null","arrowup","[0.325,0.675,0.15,0.85]","","",""
"sailing-trial","413","1490126","0.0-11.0-368.0","","","","false","","","","","","","","","","550.3000000119209","","262.30000001192093","","0","0","arrowleft","0","arrowleft","[0.325,0.675,0.15,0.85]","","",""
"sailing-trial","414","1492526","0.0-11.0-369.0","","","","false","","","","","","","","","","null","","726.1000000238419","","3","1","null","null","arrowup","[0.325,0.675,0.15,0.85]","","",""
"sailing-trial","415","1496377","0.0-11.0-370.0","","","","false","","","","","","","","","","778.5","","365.80000001192093","","1","1","arrowleft","0","arrowright","[0.325,0.675,0.15,0.85]","","",""
"sailing-trial","416","1498991","0.0-11.0-371.0","","","","false","","","","","","","","","","null","","837.1999999880791","","1","1","null","null","arrowup","[0.325,0.675,0.15,0.85]","","",""
"sailing-trial","417","1502176","0.0-11.0-372.0","","","","false","","","","","","","","","","833.0999999940395","","144.80000001192093","","1","0","arrowleft","0","arrowright","[0.325,0.675,0.15,0.85]","","",""
"sailing-trial","418","1504757","0.0-11.0-373.0","","","","false","","","","","","","","","","null","","918.4000000059605","","0","1","null","null","arrowup","[0.325,0.675,0.15,0.85]","","",""
"sailing-trial","419","1508673","0.0-11.0-374.0","","","","false","","","","","","","","","","890.4000000059605","","321.80000001192093","","2","1","arrowright","1","arrowleft","[0.325,0.675,0.15,0.85]","","",""
"sailing-trial","420","1510926","0.0-11.0-375.0","","","","false","","","","","","","","","","null","","620.5999999940395","","3","1","null","null","arrowup","[0.325,0.675,0.15,0.85]","","",""
"sailing-trial","421","1514139","0.0-11.0-376.0","","","","false","","","","","","","","","","514","","382.40000000596046","","2","0","arrowright","1","arrowleft","[0.325,0.675,0.15,0.85]","","",""
"sailing-trial","422","1516444","0.0-11.0-377.0","","","","false","","","","","","","","","","null","","596.8999999761581","","1","1","null","null","arrowup","[0.325,0.675,0.15,0.85]","","",""
"sailing-trial","423","1519313","0.0-11.0-378.0","","","","false","","","","","","","","","","582.7000000178814","","80.59999999403954","","3","0","arrowright","1","arrowright","[0.325,0.675,0.15,0.85]","","",""
"sailing-trial","424","1520986","0.0-11.0-379.0","","","","false","","","","","","","","","","null","","612.0999999940395","","3","0","null","null","arrowup","[0.325,0.675,0.15,0.85]","","",""
"sailing-trial","425","1523830","0.0-11.0-380.0","","","","false","","","","","","","","","","480.2000000178814","","42.60000002384186","","0","0","arrowleft","0","arrowleft","[0.15,0.85,0.325,0.675]","","",""
"sailing-trial","426","1526126","0.0-11.0-381.0","","","","false","","","","","","","","","","null","","706.5999999940395","","3","1","null","null","arrowup","[0.15,0.85,0.325,0.675]","","",""
"sailing-trial","427","1529247","0.0-11.0-382.0","","","","false","","","","","","","","","","523.3000000119209","","273.7000000178814","","2","0","arrowright","1","arrowleft","[0.15,0.85,0.325,0.675]","","",""
"sailing-trial","428","1531116","0.0-11.0-383.0","","","","false","","","","","","","","","","null","","619.3000000119209","","0","0","null","null","arrowup","[0.15,0.85,0.325,0.675]","","",""
"sailing-trial","429","1535178","0.0-11.0-384.0","","","","false","","","","","","","","","","716.9000000059605","","324.7000000178814","","3","1","arrowright","1","arrowright","[0.15,0.85,0.325,0.675]","","",""
"sailing-trial","430","1536627","0.0-11.0-385.0","","","","false","","","","","","","","","","null","","360.7999999821186","","0","0","null","null","arrowup","[0.15,0.85,0.325,0.675]","","",""
"sailing-trial","431","1539778","0.0-11.0-386.0","","","","false","","","","","","","","","","499.5","","380.5","","3","0","arrowright","1","arrowright","[0.15,0.85,0.325,0.675]","","",""
"sailing-trial","432","1543079","0.0-11.0-387.0","","","","false","","","","","","","","","","null","","2060.699999988079","","3","0","null","null","arrowup","[0.15,0.85,0.325,0.675]","","",""
"sailing-trial","433","1546131","0.0-11.0-388.0","","","","false","","","","","","","","","","625.0999999940395","","367","","2","0","arrowright","1","arrowleft","[0.15,0.85,0.325,0.675]","","",""
"sailing-trial","434","1548099","0.0-11.0-389.0","","","","false","","","","","","","","","","null","","811.0999999940395","","3","0","null","null","arrowup","[0.15,0.85,0.325,0.675]","","",""
"sailing-trial","435","1550814","0.0-11.0-390.0","","","","false","","","","","","","","","","569.7999999821186","","39.70000001788139","","0","0","arrowleft","0","arrowleft","[0.15,0.85,0.325,0.675]","","",""
"sailing-trial","436","1552732","0.0-11.0-391.0","","","","false","","","","","","","","","","null","","794.5","","0","0","null","null","arrowup","[0.15,0.85,0.325,0.675]","","",""
"sailing-trial","437","1556130","0.0-11.0-392.0","","","","false","","","","","","","","","","651.7999999821186","","1.2999999821186066","","1","1","arrowleft","0","arrowright","[0.15,0.85,0.325,0.675]","","",""
"sailing-trial","438","1558527","0.0-11.0-393.0","","","","false","","","","","","","","","","null","","449.09999999403954","","1","1","null","null","arrowup","[0.15,0.85,0.325,0.675]","","",""
"sailing-trial","439","1561810","0.0-11.0-394.0","","","","false","","","","","","","","","","402.40000000596046","","83.30000001192093","","2","1","arrowright","1","arrowleft","[0.15,0.85,0.325,0.675]","","",""
"sailing-trial","440","1563977","0.0-11.0-395.0","","","","false","","","","","","","","","","null","","536.2999999821186","","3","1","null","null","arrowup","[0.15,0.85,0.325,0.675]","","",""
"sailing-trial","441","1567283","0.0-11.0-396.0","","","","false","","","","","","","","","","879.0999999940395","","319.90000000596046","","2","0","arrowright","1","arrowleft","[0.15,0.85,0.325,0.675]","","",""
"sailing-trial","442","1569492","0.0-11.0-397.0","","","","false","","","","","","","","","","null","","642.8000000119209","","3","1","null","null","arrowup","[0.15,0.85,0.325,0.675]","","",""
"sailing-trial","443","1572745","0.0-11.0-398.0","","","","false","","","","","","","","","","505.59999999403954","","22.69999998807907","","1","1","arrowleft","0","arrowright","[0.15,0.85,0.325,0.675]","","",""
"sailing-trial","444","1574292","0.0-11.0-399.0","","","","false","","","","","","","","","","null","","441","","0","0","null","null","arrowup","[0.15,0.85,0.325,0.675]","","",""
"instructions","445","1577687","0.0-12.0","","","","","","","","","","3393.4000000059605","","","","","","","","","","","","","","","","[{""page_index"":0,""viewing_time"":3392.7000000178814}]"
"survey-debrief","446","1586180","0.0-13.0","","","","","","","","","","8490.59999999404","","","","","","","","","","","","","","{""difficulty"":""4"",""fun"":""2"",""clarity"":""4"",""strategy"":""no"",""feedback"":""""}","",""
