"trial_type","trial_index","time_elapsed","internal_node_id","value","metadata","success","timeout","failed_images","failed_audio","failed_video","browser_interaction","low_quality","rt","stimulus","response","button_pressed","island_rt","island_response","boat_rt","boat_response","boat","reward","island_key","island","boat_key","reward_probabilities","responses","num_errors","view_history"
"pavlovia","0","3","0.0-0.0","","","","","","","","","","","","","","","","","","","","","","","","","",""
"call-function","1","3","0.0-1.0","","{""task_version"":""sailing_part1_v1"",""task_condition"":""good"",""boats"":[""A"",""D"",""B"",""C""],""boats_demo"":[""G"",""H"",""F"",""E""],""islands"":[""B"",""A""],""subject_id"":""14941"",""age"":""17"",""gender"":""Female""}","","","","","","","","","","","","","","","","","","","","","","","",""
"preload","2","1571","0.0-2.0","","","true","false","[]","[]","[]","[{""event"":""fullscreenenter"",""trial"":3,""time"":2939}]","false","","","","","","","","","","","","","","","","",""
"fullscreen","3","3910","0.0-3.0","","","true","","","","","","","","","","","","","","","","","","","","","","",""
"audio-keyboard-response","4","8007","0.0-4.0-0.0","","","","","","","","","","4022.857142857143","audio/beep_loop.wav"," ","","","","","","","","","","","","","",""
"audio-test","5","9292","0.0-4.0-1.0","","","","","","","","","","null","audio/turtle.mp3","","3","","","","","","","","","","","","",""
"audio-test","6","11237","0.0-4.0-2.0","","","","","","","","","","null","audio/shark.mp3","","2","","","","","","","","","","","","",""
"sailing-instructions","7","43383","0.0-5.0-0.0-0.0","","","","","","","","","","","","","","null","null","null","null","null","null","","","","","","",""
"sailing-trial","8","46994","0.0-5.0-0.0-1.0-0.0","","","","false","","","","","","","","","","2376","","null","","null","null","arrowleft","0","null","null","","",""
"sailing-trial","9","49991","0.0-5.0-0.0-1.0-1.0","","","","false","","","","","","","","","","1889.1000000089407","","null","","null","null","arrowright","1","null","null","","",""
"sailing-trial","10","52508","0.0-5.0-0.0-1.0-2.0","","","","false","","","","","","","","","","1417.5","","null","","null","null","arrowright","1","null","null","","",""
"sailing-instructions","11","97083","0.0-5.0-0.0-2.0","","","","","","","","","","","","","","null","null","null","null","0","null","","","","","","",""
"sailing-trial","12","103788","0.0-5.0-0.0-3.0-0.0","","","","false","","","","","","","","","","null","","1734.2000000029802","","2","1","null","null","arrowleft","[1,1,1,1]","","",""
"sailing-trial","13","106241","0.0-5.0-0.0-3.0-1.0","","","","false","","","","","","","","","","null","","137.29999999701977","","3","1","null","null","arrowright","[1,1,1,1]","","",""
"sailing-trial","14","109825","0.0-5.0-0.0-3.0-2.0","","","","false","","","","","","","","","","null","","71.1000000089407","","2","0","null","null","arrowleft","[0,0,0,0]","","",""
"sailing-instructions","15","117515","0.0-5.0-0.0-4.0","","","","","","","","","","","","","","null","null","null","null","null","null","","","","","","",""
"sailing-comprehension","16","132134","0.0-5.0-0.0-5.0","","","","","","","","[{""event"":""fullscreenenter"",""trial"":3,""time"":2939},{""event"":""blur"",""trial"":17,""time"":180552},{""event"":""focus"",""trial"":17,""time"":181188},{""event"":""blur"",""trial"":17,""time"":183606},{""event"":""focus"",""trial"":17,""time"":186444}]","false","12642.90000000596","","","","","","","","","","","","","","[""true"",""true"",""false"",""true""]","0",""
"sailing-instructions","17","192192","0.0-6.0-0.0-0.0","","","","","","","","","","","","","","null","null","null","null","null","null","","","","","","",""
"sailing-comprehension","18","210231","0.0-6.0-0.0-1.0","","","","","","","","","","11898.79999999702","","","","","","","","","","","","","","[""true"",""true"",""true""]","1",""
"sailing-instructions","19","267951","0.0-6.0-0.1-0.1","","","","","","","","","","","","","","null","null","null","null","null","null","","","","","","",""
"sailing-comprehension","20","281762","0.0-6.0-0.1-1.1","","","","","","","","","","6495.70000000298","","","","","","","","","","","","","","[""true"",""true"",""false""]","2",""
"sailing-instructions","21","295772","0.0-7.0-0.0-0.0","","","","","","","","","","","","","","null","null","null","null","null","null","","","","","","",""
"sailing-trial","22","301006","0.0-7.0-0.0-1.0-0.0","","","","false","","","","","","","","","","null","","2235.7000000029802","","0","0","null","null","arrowup","[0.2,0.8,0.2,0.8]","","",""
"sailing-trial","23","305777","0.0-7.0-0.0-1.0-1.0","","","","false","","","","","","","","","","null","","2747.5999999940395","","1","0","null","null","arrowup","[0.2,0.8,0.2,0.8]","","",""
"sailing-trial","24","309163","0.0-7.0-0.0-1.0-2.0","","","","false","","","","","","","","","","null","","1836.7999999970198","","2","0","null","null","arrowup","[0.2,0.8,0.2,0.8]","","",""
"sailing-trial","25","317150","0.0-7.0-0.0-1.0-3.0","","","","false","","","","","","","","","","null","","5901.399999991059","","3","1","null","null","arrowup","[0.2,0.8,0.2,0.8]","","",""
"sailing-comprehension","26","327273","0.0-7.0-0.0-2.0","","","","","","","","","","4299","","","","","","","","","","","","","","[""true""]","1",""
"sailing-instructions","27","341019","0.0-7.0-0.1-0.1","","","","","","","","","","","","","","null","null","null","null","null","null","","","","","","",""
"sailing-trial","28","343239","0.0-7.0-0.1-1.1-0.1","","","","false","","","","","","","","","","null","","984.7999999970198","","0","0","null","null","arrowup","[0.2,0.8,0.2,0.8]","","",""
"sailing-trial","29","345300","0.0-7.0-0.1-1.1-1.1","","","","false","","","","","","","","","","null","","193.1000000089407","","1","1","null","null","arrowup","[0.2,0.8,0.2,0.8]","","",""
"sailing-trial","30","346473","0.0-7.0-0.1-1.1-2.1","","","","false","","","","","","","","","","null","","119.09999999403954","","2","0","null","null","arrowup","[0.2,0.8,0.2,0.8]","","",""
"sailing-trial","31","348350","0.0-7.0-0.1-1.1-3.1","","","","false","","","","","","","","","","null","","176.5","","3","1","null","null","arrowup","[0.2,0.8,0.2,0.8]","","",""
"sailing-comprehension","32","352364","0.0-7.0-0.1-2.1","","","","","","","","","","3196.7999999970198","","","","","","","","","","","","","","[""false""]","0",""
"sailing-instructions","33","362173","0.0-8.0-0.0-0.0","","","","","","","","","","","","","","null","null","null","null","null","null","","","","","","",""
"sailing-comprehension","34","366554","0.0-8.0-0.0-1.0","","","","","","","","","","3972.9000000059605","","","","","","","","","","","","","","[""true""]","0",""
"sailing-instructions","35","387634","0.0-9.0-0.0-0.0","","","","","","","","","","","","","","null","null","null","null","null","null","","","","","","",""
"sailing-trial","36","392081","0.0-9.0-0.0-1.0-0.0","","","","false","","","","","","","","","","1384.8999999910593","","778.2999999970198","","0","0","arrowleft","0","arrowleft","[0.2,0.8,0.2,0.8]","","",""
"sailing-trial","37","395406","0.0-9.0-0.0-1.0-1.0","","","","false","","","","","","","","","","1007.2999999970198","","23.599999994039536","","3","0","arrowright","1","arrowright","[0.2,0.8,0.2,0.8]","","",""
"sailing-trial","38","397845","0.0-9.0-0.0-1.0-2.0","","","","false","","","","","","","","","","null","","1160.5999999940395","","0","0","null","null","arrowup","[0.2,0.8,0.2,0.8]","","",""
"sailing-trial","39","401750","0.0-9.0-0.0-1.0-3.0","","","","false","","","","","","","","","","858.8000000119209","","277","","1","1","arrowleft","0","arrowright","[0.2,0.8,0.2,0.8]","","",""
"sailing-trial","40","404583","0.0-9.0-0.0-1.0-4.0","","","","false","","","","","","","","","","null","","1116","","3","1","null","null","arrowup","[0.2,0.8,0.2,0.8]","","",""
"sailing-trial","41","408214","0.0-9.0-0.0-1.0-5.0","","","","false","","","","","","","","","","387.1000000089407","","421.5","","1","1","arrowleft","0","arrowright","[0.2,0.8,0.2,0.8]","","",""
"sailing-instructions","42","432525","0.0-10.0","","","","","","","","","","","","","","null","null","null","null","null","null","","","","","","",""
"sailing-trial","43","435894","0.0-11.0-0.0","","","","false","","","","","","","","","","1179.2000000029802","","64.29999999701977","","1","0","arrowleft","0","arrowright","[0.85,0.15,0.325,0.675]","","",""
"sailing-trial","44","439463","0.0-11.0-1.0","","","","false","","","","","","","","","","null","","1026.6000000089407","","1","0","null","null","arrowup","[0.85,0.15,0.325,0.675]","","",""
"sailing-trial","45","442864","0.0-11.0-2.0","","","","false","","","","","","","","","","443.20000000298023","","180","","0","1","arrowleft","0","arrowleft","[0.85,0.15,0.325,0.675]","","",""
"sailing-trial","46","445343","0.0-11.0-3.0","","","","false","","","","","","","","","","null","","453.70000000298023","","2","0","null","null","arrowup","[0.85,0.15,0.325,0.675]","","",""
"sailing-trial","47","449116","0.0-11.0-4.0","","","","false","","","","","","","","","","326.40000000596046","","313.1000000089407","","3","1","arrowright","1","arrowright","[0.85,0.15,0.325,0.675]","","",""
"sailing-trial","48","450472","0.0-11.0-5.0","","","","false","","","","","","","","","","null","","284.29999999701977","","2","0","null","null","arrowup","[0.85,0.15,0.325,0.675]","","",""
"sailing-trial","49","455248","0.0-11.0-6.0","","","","false","","","","","","","","","","573.2000000029802","","184.19999998807907","","2","0","arrowright","1","arrowleft","[0.85,0.15,0.325,0.675]","","",""
"sailing-trial","50","457797","0.0-11.0-7.0","","","","false","","","","","","","","","","null","","770","","3","1","null","null","arrowup","[0.85,0.15,0.325,0.675]","","",""
"sailing-trial","51","461029","0.0-11.0-8.0","","","","false","","","","","","","","","","431.5","","13.699999988079071","","3","1","arrowright","1","arrowright","[0.85,0.15,0.325,0.675]","","",""
"sailing-trial","52","462730","0.0-11.0-9.0","","","","false","","","","","","","","","","null","","479.5","","3","0","null","null","arrowup","[0.85,0.15,0.325,0.675]","","",""
"sailing-trial","53","466342","0.0-11.0-10.0","","","","false","","","","","","","","","","785.8999999910593","","378.70000000298023","","2","0","arrowright","1","arrowleft","[0.85,0.15,0.325,0.675]","","",""
"sailing-trial","54","468565","0.0-11.0-11.0","","","","false","","","","","","","","","","null","","407.59999999403954","","0","1","null","null","arrowup","[0.85,0.15,0.325,0.675]","","",""
"sailing-trial","55","471481","0.0-11.0-12.0","","","","false","","","","","","","","","","132.20000000298023","","178.09999999403954","","0","1","arrowleft","0","arrowleft","[0.85,0.15,0.325,0.675]","","",""
"sailing-trial","56","474249","0.0-11.0-13.0","","","","false","","","","","","","","","","null","","874.5999999940395","","0","1","null","null","arrowup","[0.85,0.15,0.325,0.675]","","",""
"sailing-trial","57","477615","0.0-11.0-14.0","","","","false","","","","","","","","","","208.70000000298023","","196.20000000298023","","0","1","arrowleft","0","arrowleft","[0.85,0.15,0.325,0.675]","","",""
"sailing-trial","58","480841","0.0-11.0-15.0","","","","false","","","","","","","","","","null","","582.9000000059605","","2","0","null","null","arrowup","[0.85,0.15,0.325,0.675]","","",""
"sailing-trial","59","483746","0.0-11.0-16.0","","","","false","","","","","","","","","","372.5","","272.8999999910593","","1","0","arrowleft","0","arrowright","[0.85,0.15,0.325,0.675]","","",""
"sailing-trial","60","485927","0.0-11.0-17.0","","","","false","","","","","","","","","","null","","586.1999999880791","","2","0","null","null","arrowup","[0.85,0.15,0.325,0.675]","","",""
"sailing-trial","61","489150","0.0-11.0-18.0","","","","false","","","","","","","","","","414.29999999701977","","248.90000000596046","","1","1","arrowleft","0","arrowright","[0.675,0.325,0.15,0.85]","","",""
"sailing-trial","62","490903","0.0-11.0-19.0","","","","false","","","","","","","","","","null","","608","","1","0","null","null","arrowup","[0.675,0.325,0.15,0.85]","","",""
"sailing-trial","63","494180","0.0-11.0-20.0","","","","false","","","","","","","","","","248.40000000596046","","209.5","","2","1","arrowright","1","arrowleft","[0.675,0.325,0.15,0.85]","","",""
"sailing-trial","64","496562","0.0-11.0-21.0","","","","false","","","","","","","","","","null","","533.8999999910593","","1","1","null","null","arrowup","[0.675,0.325,0.15,0.85]","","",""
"sailing-trial","65","499413","0.0-11.0-22.0","","","","false","","","","","","","","","","3.7999999970197678","","190.6000000089407","","3","1","arrowright","1","arrowright","[0.675,0.325,0.15,0.85]","","",""
"sailing-trial","66","502878","0.0-11.0-23.0","","","","false","","","","","","","","","","null","","1803.7999999970198","","3","1","null","null","arrowup","[0.675,0.325,0.15,0.85]","","",""
"sailing-trial","67","505849","0.0-11.0-24.0","","","","false","","","","","","","","","","169.09999999403954","","234.5","","3","1","arrowright","1","arrowright","[0.675,0.325,0.15,0.85]","","",""
"sailing-trial","68","508763","0.0-11.0-25.0","","","","false","","","","","","","","","","null","","850.1000000089407","","2","1","null","null","arrowup","[0.675,0.325,0.15,0.85]","","",""
"sailing-trial","69","512130","0.0-11.0-26.0","","","","false","","","","","","","","","","158.90000000596046","","309.1000000089407","","3","1","arrowright","1","arrowright","[0.675,0.325,0.15,0.85]","","",""
"sailing-trial","70","514697","0.0-11.0-27.0","","","","false","","","","","","","","","","null","","837","","3","1","null","null","arrowup","[0.675,0.325,0.15,0.85]","","",""
"sailing-trial","71","517556","0.0-11.0-28.0","","","","false","","","","","","","","","","117","","726.0999999940395","","3","0","arrowright","1","arrowright","[0.675,0.325,0.15,0.85]","","",""
"sailing-trial","72","520280","0.0-11.0-29.0","","","","false","","","","","","","","","","null","","747.5","","0","1","null","null","arrowup","[0.675,0.325,0.15,0.85]","","",""
"sailing-trial","73","524380","0.0-11.0-30.0","","","","false","","","","","","","","","","307.20000000298023","","310","","3","1","arrowright","1","arrowright","[0.675,0.325,0.15,0.85]","","",""
"sailing-trial","74","526444","0.0-11.0-31.0","","","","false","","","","","","","","","","null","","24.899999991059303","","2","1","null","null","arrowup","[0.675,0.325,0.15,0.85]","","",""
"sailing-trial","75","529161","0.0-11.0-32.0","","","","false","","","","","","","","","","155","","44.29999999701977","","3","1","arrowright","1","arrowright","[0.675,0.325,0.15,0.85]","","",""
"sailing-trial","76","531410","0.0-11.0-33.0","","","","false","","","","","","","","","","null","","471.90000000596046","","1","1","null","null","arrowup","[0.675,0.325,0.15,0.85]","","",""
"sailing-trial","77","534763","0.0-11.0-34.0","","","","false","","","","","","","","","","171.40000000596046","","198","","3","1","arrowright","1","arrowright","[0.675,0.325,0.15,0.85]","","",""
"sailing-trial","78","537149","0.0-11.0-35.0","","","","false","","","","","","","","","","null","","991.3999999910593","","1","0","null","null","arrowup","[0.675,0.325,0.15,0.85]","","",""
"sailing-trial","79","540529","0.0-11.0-36.0","","","","false","","","","","","","","","","308.79999999701977","","438.90000000596046","","3","1","arrowright","1","arrowright","[0.85,0.15,0.325,0.675]","","",""
"sailing-trial","80","543095","0.0-11.0-37.0","","","","false","","","","","","","","","","null","","554.2000000029802","","0","1","null","null","arrowup","[0.85,0.15,0.325,0.675]","","",""
"sailing-trial","81","545946","0.0-11.0-38.0","","","","false","","","","","","","","","","42.79999999701977","","244.19999998807907","","3","1","arrowright","1","arrowright","[0.85,0.15,0.325,0.675]","","",""
"sailing-trial","82","548639","0.0-11.0-39.0","","","","false","","","","","","","","","","null","","1410.2000000029802","","1","0","null","null","arrowup","[0.85,0.15,0.325,0.675]","","",""
"sailing-trial","83","551467","0.0-11.0-40.0","","","","false","","","","","","","","","","415.8999999910593","","340.3999999910593","","3","0","arrowright","1","arrowright","[0.85,0.15,0.325,0.675]","","",""
"sailing-trial","84","553864","0.0-11.0-41.0","","","","false","","","","","","","","","","null","","664.3999999910593","","2","1","null","null","arrowup","[0.85,0.15,0.325,0.675]","","",""
"sailing-trial","85","557429","0.0-11.0-42.0","","","","false","","","","","","","","","","479.70000000298023","","243.20000000298023","","0","1","arrowleft","0","arrowleft","[0.85,0.15,0.325,0.675]","","",""
"sailing-trial","86","559761","0.0-11.0-43.0","","","","false","","","","","","","","","","null","","408.40000000596046","","2","1","null","null","arrowup","[0.85,0.15,0.325,0.675]","","",""
"sailing-trial","87","562513","0.0-11.0-44.0","","","","false","","","","","","","","","","56.79999999701977","","105.59999999403954","","0","1","arrowleft","0","arrowleft","[0.85,0.15,0.325,0.675]","","",""
"sailing-trial","88","564594","0.0-11.0-45.0","","","","false","","","","","","","","","","null","","246.40000000596046","","3","1","null","null","arrowup","[0.85,0.15,0.325,0.675]","","",""
"sailing-trial","89","567330","0.0-11.0-46.0","","","","false","","","","","","","","","","155.3999999910593","","50.099999994039536","","0","1","arrowleft","0","arrowleft","[0.85,0.15,0.325,0.675]","","",""
"sailing-trial","90","570924","0.0-11.0-47.0","","","","false","","","","","","","","","","null","","2333.7999999970198","","2","0","null","null","arrowup","[0.85,0.15,0.325,0.675]","","",""
"sailing-trial","91","574112","0.0-11.0-48.0","","","","false","","","","","","","","","","278.09999999403954","","309.29999999701977","","0","1","arrowleft","0","arrowleft","[0.85,0.15,0.325,0.675]","","",""
"sailing-trial","92","576329","0.0-11.0-49.0","","","","false","","","","","","","","","","null","","605.2999999970198","","3","1","null","null","arrowup","[0.85,0.15,0.325,0.675]","","",""
"sailing-trial","93","579695","0.0-11.0-50.0","","","","false","","","","","","","","","","420.79999999701977","","174.90000000596046","","0","1","arrowleft","0","arrowleft","[0.85,0.15,0.325,0.675]","","",""
"sailing-trial","94","581712","0.0-11.0-51.0","","","","false","","","","","","","","","","null","","321.29999999701977","","3","1","null","null","arrowup","[0.85,0.15,0.325,0.675]","","",""
"sailing-trial","95","584446","0.0-11.0-52.0","","","","false","","","","","","","","","","83.30000001192093","","5.799999997019768","","0","1","arrowleft","0","arrowleft","[0.85,0.15,0.325,0.675]","","",""
"sailing-trial","96","586294","0.0-11.0-53.0","","","","false","","","","","","","","","","null","","41.70000000298023","","0","1","null","null","arrowup","[0.85,0.15,0.325,0.675]","","",""
"sailing-trial","97","589643","0.0-11.0-54.0","","","","false","","","","","","","","","","293.90000000596046","","170.70000000298023","","0","1","arrowleft","0","arrowleft","[0.675,0.325,0.15,0.85]","","",""
"sailing-trial","98","593126","0.0-11.0-55.0","","","","false","","","","","","","","","","null","","1880","","3","1","null","null","arrowup","[0.675,0.325,0.15,0.85]","","",""
"sailing-trial","99","595657","0.0-11.0-56.0","","","","false","","","","","","","","","","198.20000000298023","","140.5","","0","0","arrowleft","0","arrowleft","[0.675,0.325,0.15,0.85]","","",""
"sailing-trial","100","596941","0.0-11.0-57.0","","","","false","","","","","","","","","","null","","156.70000000298023","","2","0","null","null","arrowup","[0.675,0.325,0.15,0.85]","","",""
"sailing-trial","101","599763","0.0-11.0-58.0","","","","false","","","","","","","","","","137.8999999910593","","20.099999994039536","","3","1","arrowright","1","arrowright","[0.675,0.325,0.15,0.85]","","",""
"sailing-trial","102","602682","0.0-11.0-59.0","","","","false","","","","","","","","","","null","","949.9000000059605","","3","1","null","null","arrowup","[0.675,0.325,0.15,0.85]","","",""
"sailing-trial","103","605051","0.0-11.0-60.0","","","","false","","","","","","","","","","67.20000000298023","","111.5","","3","0","arrowright","1","arrowright","[0.675,0.325,0.15,0.85]","","",""
"sailing-trial","104","608312","0.0-11.0-61.0","","","","false","","","","","","","","","","null","","1979.7999999970198","","3","0","null","null","arrowup","[0.675,0.325,0.15,0.85]","","",""
"sailing-trial","105","611780","0.0-11.0-62.0","","","","false","","","","","","","","","","593.0999999940395","","88.59999999403954","","3","1","arrowright","1","arrowright","[0.675,0.325,0.15,0.85]","","",""
"sailing-trial","106","614100","0.0-11.0-63.0","","","","false","","","","","","","","","","null","","547.4000000059605","","3","1","null","null","arrowup","[0.675,0.325,0.15,0.85]","","",""
"sailing-trial","107","617249","0.0-11.0-64.0","","","","false","","","","","","","","","","44.900000005960464","","496.70000000298023","","3","1","arrowright","1","arrowright","[0.675,0.325,0.15,0.85]","","",""
"sailing-trial","108","619582","0.0-11.0-65.0","","","","false","","","","","","","","","","null","","517.2000000029802","","3","1","null","null","arrowup","[0.675,0.325,0.15,0.85]","","",""
"sailing-trial","109","622716","0.0-11.0-66.0","","","","false","","","","","","","","","","111.69999998807907","","201","","0","1","arrowleft","0","arrowleft","[0.675,0.325,0.15,0.85]","","",""
"sailing-trial","110","625282","0.0-11.0-67.0","","","","false","","","","","","","","","","null","","616.1999999880791","","3","1","null","null","arrowup","[0.675,0.325,0.15,0.85]","","",""
"sailing-trial","111","628048","0.0-11.0-68.0","","","","false","","","","","","","","","","134.1000000089407","","49.3999999910593","","0","1","arrowleft","0","arrowleft","[0.675,0.325,0.15,0.85]","","",""
"sailing-trial","112","629683","0.0-11.0-69.0","","","","false","","","","","","","","","","null","","106.6000000089407","","1","1","null","null","arrowup","[0.675,0.325,0.15,0.85]","","",""
"sailing-trial","113","632750","0.0-11.0-70.0","","","","false","","","","","","","","","","191.70000000298023","","253.20000000298023","","0","1","arrowleft","0","arrowleft","[0.85,0.15,0.325,0.675]","","",""
"sailing-trial","114","634348","0.0-11.0-71.0","","","","false","","","","","","","","","","null","","27.400000005960464","","2","1","null","null","arrowup","[0.85,0.15,0.325,0.675]","","",""
"sailing-trial","115","637251","0.0-11.0-72.0","","","","false","","","","","","","","","","32","","182.40000000596046","","0","1","arrowleft","0","arrowleft","[0.85,0.15,0.325,0.675]","","",""
"sailing-trial","116","638580","0.0-11.0-73.0","","","","false","","","","","","","","","","null","","223.8999999910593","","2","0","null","null","arrowup","[0.85,0.15,0.325,0.675]","","",""
"sailing-trial","117","641849","0.0-11.0-74.0","","","","false","","","","","","","","","","127.20000000298023","","518","","0","1","arrowleft","0","arrowleft","[0.85,0.15,0.325,0.675]","","",""
"sailing-trial","118","643949","0.0-11.0-75.0","","","","false","","","","","","","","","","null","","144.6000000089407","","0","1","null","null","arrowup","[0.85,0.15,0.325,0.675]","","",""
"sailing-trial","119","646347","0.0-11.0-76.0","","","","false","","","","","","","","","","49.20000000298023","","150.29999999701977","","0","0","arrowleft","0","arrowleft","[0.85,0.15,0.325,0.675]","","",""
"sailing-trial","120","649266","0.0-11.0-77.0","","","","false","","","","","","","","","","null","","1290.5","","3","1","null","null","arrowup","[0.85,0.15,0.325,0.675]","","",""
"sailing-trial","121","652282","0.0-11.0-78.0","","","","false","","","","","","","","","","269.20000000298023","","36.79999999701977","","3","1","arrowright","1","arrowright","[0.85,0.15,0.325,0.675]","","",""
"sailing-trial","122","653882","0.0-11.0-79.0","","","","false","","","","","","","","","","null","","168.90000000596046","","0","0","null","null","arrowup","[0.85,0.15,0.325,0.675]","","",""
"sailing-trial","123","658033","0.0-11.0-80.0","","","","false","","","","","","","","","","384.09999999403954","","414.70000000298023","","3","1","arrowright","1","arrowright","[0.85,0.15,0.325,0.675]","","",""
"sailing-trial","124","660699","0.0-11.0-81.0","","","","false","","","","","","","","","","null","","846.0999999940395","","1","1","null","null","arrowup","[0.85,0.15,0.325,0.675]","","",""
"sailing-trial","125","664418","0.0-11.0-82.0","","","","false","","","","","","","","","","104.90000000596046","","110.29999999701977","","2","0","arrowright","1","arrowleft","[0.85,0.15,0.325,0.675]","","",""
"sailing-trial","126","666331","0.0-11.0-83.0","","","","false","","","","","","","","","","null","","235.90000000596046","","3","1","null","null","arrowup","[0.85,0.15,0.325,0.675]","","",""
"sailing-trial","127","669078","0.0-11.0-84.0","","","","false","","","","","","","","","","268.5","","278.09999999403954","","2","0","arrowright","1","arrowleft","[0.85,0.15,0.325,0.675]","","",""
"sailing-trial","128","670482","0.0-11.0-85.0","","","","false","","","","","","","","","","null","","170.20000000298023","","1","0","null","null","arrowup","[0.85,0.15,0.325,0.675]","","",""
"sailing-trial","129","673999","0.0-11.0-86.0","","","","false","","","","","","","","","","61.8999999910593","","609","","3","1","arrowright","1","arrowright","[0.325,0.675,0.85,0.15]","","",""
"sailing-trial","130","676051","0.0-11.0-87.0","","","","false","","","","","","","","","","null","","353.59999999403954","","1","1","null","null","arrowup","[0.325,0.675,0.85,0.15]","","",""
"sailing-trial","131","678882","0.0-11.0-88.0","","","","false","","","","","","","","","","58.19999998807907","","45.900000005960464","","0","1","arrowleft","0","arrowleft","[0.325,0.675,0.85,0.15]","","",""
"sailing-trial","132","680981","0.0-11.0-89.0","","","","false","","","","","","","","","","null","","206.40000000596046","","1","1","null","null","arrowup","[0.325,0.675,0.85,0.15]","","",""
"sailing-trial","133","683405","0.0-11.0-90.0","","","","false","","","","","","","","","","298","","59.400000005960464","","0","0","arrowleft","0","arrowleft","[0.325,0.675,0.85,0.15]","","",""
"sailing-trial","134","685432","0.0-11.0-91.0","","","","false","","","","","","","","","","null","","322.5","","2","1","null","null","arrowup","[0.325,0.675,0.85,0.15]","","",""
"sailing-trial","135","688833","0.0-11.0-92.0","","","","false","","","","","","","","","","252.20000000298023","","128.59999999403954","","1","1","arrowleft","0","arrowright","[0.325,0.675,0.85,0.15]","","",""
"sailing-trial","136","690664","0.0-11.0-93.0","","","","false","","","","","","","","","","null","","134.70000000298023","","2","1","null","null","arrowup","[0.325,0.675,0.85,0.15]","","",""
"sailing-trial","137","693781","0.0-11.0-94.0","","","","false","","","","","","","","","","381.3999999910593","","168.79999999701977","","1","1","arrowleft","0","arrowright","[0.325,0.675,0.85,0.15]","","",""
"sailing-trial","138","695450","0.0-11.0-95.0","","","","false","","","","","","","","","","null","","115.29999999701977","","0","1","null","null","arrowup","[0.325,0.675,0.85,0.15]","","",""
"sailing-trial","139","699146","0.0-11.0-96.0","","","","false","","","","","","","","","","329.79999999701977","","666.5","","1","1","arrowleft","0","arrowright","[0.325,0.675,0.85,0.15]","","",""
"sailing-trial","140","700750","0.0-11.0-97.0","","","","false","","","","","","","","","","null","","44.8999999910593","","0","1","null","null","arrowup","[0.325,0.675,0.85,0.15]","","",""
"sailing-trial","141","703783","0.0-11.0-98.0","","","","false","","","","","","","","","","251.6000000089407","","166.8999999910593","","1","1","arrowleft","0","arrowright","[0.325,0.675,0.85,0.15]","","",""
"sailing-trial","142","705079","0.0-11.0-99.0","","","","false","","","","","","","","","","null","","52.79999999701977","","3","0","null","null","arrowup","[0.325,0.675,0.85,0.15]","","",""
"sailing-trial","143","708815","0.0-11.0-100.0","","","","false","","","","","","","","","","987.5","","69.5","","3","1","arrowright","1","arrowright","[0.325,0.675,0.85,0.15]","","",""
"sailing-trial","144","712818","0.0-11.0-101.0","","","","false","","","","","","","","","","null","","978.8999999910593","","0","0","null","null","arrowup","[0.325,0.675,0.85,0.15]","","",""
"sailing-trial","145","717450","0.0-11.0-102.0","","","","false","","","","","","","","","","325.40000000596046","","292.6000000089407","","3","0","arrowright","1","arrowright","[0.325,0.675,0.85,0.15]","","",""
"sailing-trial","146","720729","0.0-11.0-103.0","","","","false","","","","","","","","","","null","","2194.2000000029802","","3","0","null","null","arrowup","[0.325,0.675,0.85,0.15]","","",""
"sailing-trial","147","725631","0.0-11.0-104.0","","","","false","","","","","","","","","","569.0999999940395","","1089.9000000059605","","1","1","arrowleft","0","arrowright","[0.325,0.675,0.85,0.15]","","",""
"sailing-trial","148","728813","0.0-11.0-105.0","","","","false","","","","","","","","","","null","","1443.5999999940395","","3","1","null","null","arrowup","[0.325,0.675,0.85,0.15]","","",""
"sailing-trial","149","732398","0.0-11.0-106.0","","","","false","","","","","","","","","","328","","260","","0","1","arrowleft","0","arrowleft","[0.675,0.325,0.15,0.85]","","",""
"sailing-trial","150","733672","0.0-11.0-107.0","","","","false","","","","","","","","","","null","","2.0999999940395355","","0","0","null","null","arrowup","[0.675,0.325,0.15,0.85]","","",""
"sailing-trial","151","737497","0.0-11.0-108.0","","","","false","","","","","","","","","","853.8999999910593","","315.79999999701977","","0","1","arrowleft","0","arrowleft","[0.675,0.325,0.15,0.85]","","",""
"sailing-trial","152","739597","0.0-11.0-109.0","","","","false","","","","","","","","","","null","","421.70000000298023","","1","1","null","null","arrowup","[0.675,0.325,0.15,0.85]","","",""
"sailing-trial","153","742465","0.0-11.0-110.0","","","","false","","","","","","","","","","190.40000000596046","","50.20000000298023","","0","1","arrowleft","0","arrowleft","[0.675,0.325,0.15,0.85]","","",""
"sailing-trial","154","746156","0.0-11.0-111.0","","","","false","","","","","","","","","","null","","2653.800000011921","","2","0","null","null","arrowup","[0.675,0.325,0.15,0.85]","","",""
"sailing-trial","155","749259","0.0-11.0-112.0","","","","false","","","","","","","","","","883","","166.69999998807907","","1","0","arrowleft","0","arrowright","[0.675,0.325,0.15,0.85]","","",""
"sailing-trial","156","752255","0.0-11.0-113.0","","","","false","","","","","","","","","","null","","1786.7000000029802","","2","0","null","null","arrowup","[0.675,0.325,0.15,0.85]","","",""
"sailing-trial","157","758363","0.0-11.0-114.0","","","","false","","","","","","","","","","209.5","","147.29999999701977","","0","1","arrowleft","0","arrowleft","[0.675,0.325,0.15,0.85]","","",""
"sailing-trial","158","760073","0.0-11.0-115.0","","","","false","","","","","","","","","","null","","343","","0","0","null","null","arrowup","[0.675,0.325,0.15,0.85]","","",""
"sailing-trial","159","763413","0.0-11.0-116.0","","","","false","","","","","","","","","","332.5","","135.79999999701977","","0","1","arrowleft","0","arrowleft","[0.675,0.325,0.15,0.85]","","",""
"sailing-trial","160","765231","0.0-11.0-117.0","","","","false","","","","","","","","","","null","","188.29999999701977","","0","1","null","null","arrowup","[0.675,0.325,0.15,0.85]","","",""
"sailing-trial","161","767683","0.0-11.0-118.0","","","","false","","","","","","","","","","32.20000000298023","","377.79999999701977","","0","0","arrowleft","0","arrowleft","[0.675,0.325,0.15,0.85]","","",""
"sailing-trial","162","769040","0.0-11.0-119.0","","","","false","","","","","","","","","","null","","213.19999998807907","","3","0","null","null","arrowup","[0.675,0.325,0.15,0.85]","","",""
"sailing-trial","163","772030","0.0-11.0-120.0","","","","false","","","","","","","","","","33.20000000298023","","55.400000005960464","","3","1","arrowright","1","arrowright","[0.675,0.325,0.15,0.85]","","",""
"sailing-trial","164","774665","0.0-11.0-121.0","","","","false","","","","","","","","","","null","","663.0999999940395","","3","1","null","null","arrowup","[0.675,0.325,0.15,0.85]","","",""
"sailing-trial","165","777416","0.0-11.0-122.0","","","","false","","","","","","","","","","99.5","","90.90000000596046","","3","1","arrowright","1","arrowright","[0.675,0.325,0.15,0.85]","","",""
"sailing-trial","166","781115","0.0-11.0-123.0","","","","false","","","","","","","","","","null","","1576","","3","1","null","null","arrowup","[0.675,0.325,0.15,0.85]","","",""
"sailing-trial","167","783897","0.0-11.0-124.0","","","","false","","","","","","","","","","60.900000005960464","","192.5","","3","1","arrowright","1","arrowright","[0.85,0.15,0.325,0.675]","","",""
"sailing-trial","168","787094","0.0-11.0-125.0","","","","false","","","","","","","","","","null","","2040.699999988079","","2","0","null","null","arrowup","[0.85,0.15,0.325,0.675]","","",""
"sailing-trial","169","790196","0.0-11.0-126.0","","","","false","","","","","","","","","","938.4000000059605","","51.20000000298023","","0","0","arrowleft","0","arrowleft","[0.85,0.15,0.325,0.675]","","",""
"sailing-trial","170","792896","0.0-11.0-127.0","","","","false","","","","","","","","","","null","","307.59999999403954","","0","1","null","null","arrowup","[0.85,0.15,0.325,0.675]","","",""
"sailing-trial","171","796628","0.0-11.0-128.0","","","","false","","","","","","","","","","434.09999999403954","","672","","0","1","arrowleft","0","arrowleft","[0.85,0.15,0.325,0.675]","","",""
"sailing-trial","172","798831","0.0-11.0-129.0","","","","false","","","","","","","","","","null","","143.3999999910593","","3","1","null","null","arrowup","[0.85,0.15,0.325,0.675]","","",""
"sailing-trial","173","801913","0.0-11.0-130.0","","","","false","","","","","","","","","","8.599999994039536","","103","","0","1","arrowleft","0","arrowleft","[0.85,0.15,0.325,0.675]","","",""
"sailing-trial","174","803261","0.0-11.0-131.0","","","","false","","","","","","","","","","null","","244.70000000298023","","3","0","null","null","arrowup","[0.85,0.15,0.325,0.675]","","",""
"sailing-trial","175","806363","0.0-11.0-132.0","","","","false","","","","","","","","","","256.3999999910593","","273.69999998807907","","0","1","arrowleft","0","arrowleft","[0.85,0.15,0.325,0.675]","","",""
"sailing-trial","176","809444","0.0-11.0-133.0","","","","false","","","","","","","","","","null","","1920.0999999940395","","1","0","null","null","arrowup","[0.85,0.15,0.325,0.675]","","",""
"sailing-trial","177","811784","0.0-11.0-134.0","","","","false","","","","","","","","","","167.6000000089407","","46.79999999701977","","2","0","arrowright","1","arrowleft","[0.85,0.15,0.325,0.675]","","",""
"sailing-trial","178","815063","0.0-11.0-135.0","","","","false","","","","","","","","","","null","","1511.8999999910593","","3","1","null","null","arrowup","[0.85,0.15,0.325,0.675]","","",""
"sailing-trial","179","818277","0.0-11.0-136.0","","","","false","","","","","","","","","","39.79999999701977","","136.6000000089407","","3","1","arrowright","1","arrowright","[0.85,0.15,0.325,0.675]","","",""
"sailing-trial","180","820212","0.0-11.0-137.0","","","","false","","","","","","","","","","null","","349.19999998807907","","3","1","null","null","arrowup","[0.85,0.15,0.325,0.675]","","",""
"sailing-trial","181","823948","0.0-11.0-138.0","","","","false","","","","","","","","","","507.70000000298023","","483.19999998807907","","2","0","arrowright","1","arrowleft","[0.85,0.15,0.325,0.675]","","",""
"sailing-trial","182","827463","0.0-11.0-139.0","","","","false","","","","","","","","","","null","","1226","","2","1","null","null","arrowup","[0.85,0.15,0.325,0.675]","","",""
"sailing-trial","183","830743","0.0-11.0-140.0","","","","false","","","","","","","","","","17.19999998807907","","99.8999999910593","","3","1","arrowright","1","arrowright","[0.15,0.85,0.675,0.325]","","",""
"sailing-trial","184","833429","0.0-11.0-141.0","","","","false","","","","","","","","","","null","","1639.2999999970198","","0","0","null","null","arrowup","[0.15,0.85,0.675,0.325]","","",""
"sailing-trial","185","837045","0.0-11.0-142.0","","","","false","","","","","","","","","","363.29999999701977","","132.5","","3","1","arrowright","1","arrowright","[0.15,0.85,0.675,0.325]","","",""
"sailing-trial","186","842048","0.0-11.0-143.0","","","","false","","","","","","","","","","null","","1978.0999999940395","","3","0","null","null","arrowup","[0.15,0.85,0.675,0.325]","","",""
"sailing-trial","187","845377","0.0-11.0-144.0","","","","false","","","","","","","","","","91.90000000596046","","126.29999999701977","","3","1","arrowright","1","arrowright","[0.15,0.85,0.675,0.325]","","",""
"sailing-trial","188","848370","0.0-11.0-145.0","","","","false","","","","","","","","","","null","","1849.7000000029802","","0","0","null","null","arrowup","[0.15,0.85,0.675,0.325]","","",""
"sailing-trial","189","851827","0.0-11.0-146.0","","","","false","","","","","","","","","","325.8999999910593","","277.09999999403954","","3","1","arrowright","1","arrowright","[0.15,0.85,0.675,0.325]","","",""
"sailing-trial","190","854679","0.0-11.0-147.0","","","","false","","","","","","","","","","null","","1199.5999999940395","","2","1","null","null","arrowup","[0.15,0.85,0.675,0.325]","","",""
"sailing-trial","191","856865","0.0-11.0-148.0","","","","false","","","","","","","","","","1.2999999970197678","","107.70000000298023","","0","0","arrowleft","0","arrowleft","[0.15,0.85,0.675,0.325]","","",""
"sailing-trial","192","860946","0.0-11.0-149.0","","","","false","","","","","","","","","","null","","1075.9000000059605","","2","0","null","null","arrowup","[0.15,0.85,0.675,0.325]","","",""
"sailing-trial","193","864679","0.0-11.0-150.0","","","","false","","","","","","","","","","635.7000000029802","","124.5","","1","1","arrowleft","0","arrowright","[0.15,0.85,0.675,0.325]","","",""
"sailing-trial","194","866845","0.0-11.0-151.0","","","","false","","","","","","","","","","null","","194.70000000298023","","3","1","null","null","arrowup","[0.15,0.85,0.675,0.325]","","",""
"sailing-trial","195","869398","0.0-11.0-152.0","","","","false","","","","","","","","","","2.2000000029802322","","88.20000000298023","","0","0","arrowleft","0","arrowleft","[0.15,0.85,0.675,0.325]","","",""
"sailing-trial","196","870766","0.0-11.0-153.0","","","","false","","","","","","","","","","null","","287.6000000089407","","0","0","null","null","arrowup","[0.15,0.85,0.675,0.325]","","",""
"sailing-trial","197","873775","0.0-11.0-154.0","","","","false","","","","","","","","","","258.20000000298023","","123.19999998807907","","3","0","arrowright","1","arrowright","[0.15,0.85,0.675,0.325]","","",""
"sailing-trial","198","875896","0.0-11.0-155.0","","","","false","","","","","","","","","","null","","542.2000000029802","","1","1","null","null","arrowup","[0.15,0.85,0.675,0.325]","","",""
"sailing-trial","199","879360","0.0-11.0-156.0","","","","false","","","","","","","","","","425.09999999403954","","456.59999999403954","","0","1","arrowleft","0","arrowleft","[0.325,0.675,0.85,0.15]","","",""
"sailing-trial","200","881911","0.0-11.0-157.0","","","","false","","","","","","","","","","null","","989.4000000059605","","2","1","null","null","arrowup","[0.325,0.675,0.85,0.15]","","",""
"sailing-trial","201","886339","0.0-11.0-158.0","","","","false","","","","","","","","","","1227.2999999970198","","492.90000000596046","","0","0","arrowleft","0","arrowleft","[0.325,0.675,0.85,0.15]","","",""
"sailing-trial","202","888477","0.0-11.0-159.0","","","","false","","","","","","","","","","null","","497.29999999701977","","3","1","null","null","arrowup","[0.325,0.675,0.85,0.15]","","",""
"sailing-trial","203","891763","0.0-11.0-160.0","","","","false","","","","","","","","","","571","","5.9000000059604645","","3","0","arrowright","1","arrowright","[0.325,0.675,0.85,0.15]","","",""
"sailing-trial","204","893314","0.0-11.0-161.0","","","","false","","","","","","","","","","null","","235.30000001192093","","0","0","null","null","arrowup","[0.325,0.675,0.85,0.15]","","",""
"sailing-trial","205","897486","0.0-11.0-162.0","","","","false","","","","","","","","","","1354.199999988079","","644.0999999940395","","0","0","arrowleft","0","arrowleft","[0.325,0.675,0.85,0.15]","","",""
"sailing-trial","206","898924","0.0-11.0-163.0","","","","false","","","","","","","","","","null","","360.09999999403954","","3","0","null","null","arrowup","[0.325,0.675,0.85,0.15]","","",""
"sailing-trial","207","902184","0.0-11.0-164.0","","","","false","","","","","","","","","","482.6000000089407","","154.09999999403954","","3","0","arrowright","1","arrowright","[0.325,0.675,0.85,0.15]","","",""
"sailing-trial","208","903510","0.0-11.0-165.0","","","","false","","","","","","","","","","null","","162","","0","0","null","null","arrowup","[0.325,0.675,0.85,0.15]","","",""
"sailing-trial","209","905808","0.0-11.0-166.0","","","","false","","","","","","","","","","146.59999999403954","","37.5","","0","0","arrowleft","0","arrowleft","[0.325,0.675,0.85,0.15]","","",""
"sailing-trial","210","907126","0.0-11.0-167.0","","","","false","","","","","","","","","","null","","97.29999999701977","","1","0","null","null","arrowup","[0.325,0.675,0.85,0.15]","","",""
"sailing-trial","211","910376","0.0-11.0-168.0","","","","false","","","","","","","","","","344.90000000596046","","320.3999999910593","","2","1","arrowright","1","arrowleft","[0.325,0.675,0.85,0.15]","","",""
"sailing-trial","212","912011","0.0-11.0-169.0","","","","false","","","","","","","","","","null","","93.09999999403954","","1","1","null","null","arrowup","[0.325,0.675,0.85,0.15]","","",""
"sailing-trial","213","915079","0.0-11.0-170.0","","","","false","","","","","","","","","","83.5","","64.90000000596046","","2","1","arrowright","1","arrowleft","[0.325,0.675,0.85,0.15]","","",""
"sailing-trial","214","916320","0.0-11.0-171.0","","","","false","","","","","","","","","","null","","109.80000001192093","","2","0","null","null","arrowup","[0.325,0.675,0.85,0.15]","","",""
"sailing-trial","215","918493","0.0-11.0-172.0","","","","false","","","","","","","","","","25.700000002980232","","23.5","","2","0","arrowright","1","arrowleft","[0.325,0.675,0.85,0.15]","","",""
"sailing-trial","216","919638","0.0-11.0-173.0","","","","false","","","","","","","","","","null","","130.29999999701977","","3","0","null","null","arrowup","[0.325,0.675,0.85,0.15]","","",""
"sailing-trial","217","923027","0.0-11.0-174.0","","","","false","","","","","","","","","","137.40000000596046","","575.2000000029802","","3","1","arrowright","1","arrowright","[0.15,0.85,0.675,0.325]","","",""
"sailing-trial","218","924138","0.0-11.0-175.0","","","","false","","","","","","","","","","null","","18","","0","0","null","null","arrowup","[0.15,0.85,0.675,0.325]","","",""
"sailing-trial","219","926585","0.0-11.0-176.0","","","","false","","","","","","","","","","233.30000001192093","","109.1000000089407","","0","0","arrowleft","0","arrowleft","[0.15,0.85,0.675,0.325]","","",""
"sailing-trial","220","929483","0.0-11.0-177.0","","","","false","","","","","","","","","","null","","93","","2","0","null","null","arrowup","[0.15,0.85,0.675,0.325]","","",""
"sailing-trial","221","932409","0.0-11.0-178.0","","","","false","","","","","","","","","","227","","100.79999999701977","","1","1","arrowleft","0","arrowright","[0.15,0.85,0.675,0.325]","","",""
"sailing-trial","222","934209","0.0-11.0-179.0","","","","false","","","","","","","","","","null","","130","","3","1","null","null","arrowup","[0.15,0.85,0.675,0.325]","","",""
"sailing-trial","223","936908","0.0-11.0-180.0","","","","false","","","","","","","","","","51","","14.900000005960464","","1","1","arrowleft","0","arrowright","[0.15,0.85,0.675,0.325]","","",""
"sailing-trial","224","938180","0.0-11.0-181.0","","","","false","","","","","","","","","","null","","87.59999999403954","","0","0","null","null","arrowup","[0.15,0.85,0.675,0.325]","","",""
"sailing-trial","225","941211","0.0-11.0-182.0","","","","false","","","","","","","","","","143","","247.59999999403954","","1","1","arrowleft","0","arrowright","[0.15,0.85,0.675,0.325]","","",""
"sailing-trial","226","945761","0.0-11.0-183.0","","","","false","","","","","","","","","","null","","1543.8999999910593","","0","0","null","null","arrowup","[0.15,0.85,0.675,0.325]","","",""
"sailing-trial","227","948843","0.0-11.0-184.0","","","","false","","","","","","","","","","64.70000000298023","","332.6000000089407","","1","1","arrowleft","0","arrowright","[0.15,0.85,0.675,0.325]","","",""
"sailing-trial","228","950611","0.0-11.0-185.0","","","","false","","","","","","","","","","null","","178.8999999910593","","1","1","null","null","arrowup","[0.15,0.85,0.675,0.325]","","",""
"sailing-trial","229","953394","0.0-11.0-186.0","","","","false","","","","","","","","","","124.69999998807907","","130.5","","1","1","arrowleft","0","arrowright","[0.15,0.85,0.675,0.325]","","",""
"sailing-trial","230","954477","0.0-11.0-187.0","","","","false","","","","","","","","","","null","","21.19999998807907","","0","0","null","null","arrowup","[0.15,0.85,0.675,0.325]","","",""
"sailing-trial","231","957439","0.0-11.0-188.0","","","","false","","","","","","","","","","302.3999999910593","","515.2000000029802","","1","0","arrowleft","0","arrowright","[0.15,0.85,0.675,0.325]","","",""
"sailing-trial","232","959508","0.0-11.0-189.0","","","","false","","","","","","","","","","null","","235.70000000298023","","0","1","null","null","arrowup","[0.15,0.85,0.675,0.325]","","",""
"sailing-trial","233","963408","0.0-11.0-190.0","","","","false","","","","","","","","","","231.70000000298023","","179","","1","1","arrowleft","0","arrowright","[0.15,0.85,0.675,0.325]","","",""
"sailing-trial","234","967391","0.0-11.0-191.0","","","","false","","","","","","","","","","null","","2353.2999999970198","","2","1","null","null","arrowup","[0.15,0.85,0.675,0.325]","","",""
"sailing-trial","235","970258","0.0-11.0-192.0","","","","false","","","","","","","","","","154.8999999910593","","108.79999999701977","","2","1","arrowright","1","arrowleft","[0.325,0.675,0.85,0.15]","","",""
"sailing-trial","236","972609","0.0-11.0-193.0","","","","false","","","","","","","","","","null","","728.6000000089407","","2","1","null","null","arrowup","[0.325,0.675,0.85,0.15]","","",""
"sailing-trial","237","975724","0.0-11.0-194.0","","","","false","","","","","","","","","","150.59999999403954","","139.40000000596046","","2","1","arrowright","1","arrowleft","[0.325,0.675,0.85,0.15]","","",""
"sailing-trial","238","977024","0.0-11.0-195.0","","","","false","","","","","","","","","","null","","134.59999999403954","","3","0","null","null","arrowup","[0.325,0.675,0.85,0.15]","","",""
"sailing-trial","239","979891","0.0-11.0-196.0","","","","false","","","","","","","","","","201.3999999910593","","20.900000005960464","","2","1","arrowright","1","arrowleft","[0.325,0.675,0.85,0.15]","","",""
"sailing-trial","240","981173","0.0-11.0-197.0","","","","false","","","","","","","","","","null","","194","","0","0","null","null","arrowup","[0.325,0.675,0.85,0.15]","","",""
"sailing-trial","241","984009","0.0-11.0-198.0","","","","false","","","","","","","","","","183.80000001192093","","97.09999999403954","","3","1","arrowright","1","arrowright","[0.325,0.675,0.85,0.15]","","",""
"sailing-trial","242","986408","0.0-11.0-199.0","","","","false","","","","","","","","","","null","","747.5","","2","1","null","null","arrowup","[0.325,0.675,0.85,0.15]","","",""
"sailing-trial","243","988907","0.0-11.0-200.0","","","","false","","","","","","","","","","104.79999999701977","","92.29999999701977","","3","0","arrowright","1","arrowright","[0.325,0.675,0.85,0.15]","","",""
"sailing-trial","244","991274","0.0-11.0-201.0","","","","false","","","","","","","","","","null","","43.20000000298023","","1","1","null","null","arrowup","[0.325,0.675,0.85,0.15]","","",""
"sailing-trial","245","993636","0.0-11.0-202.0","","","","false","","","","","","","","","","165.1000000089407","","119.59999999403954","","3","0","arrowright","1","arrowright","[0.325,0.675,0.85,0.15]","","",""
"sailing-trial","246","995377","0.0-11.0-203.0","","","","false","","","","","","","","","","null","","127.3999999910593","","2","1","null","null","arrowup","[0.325,0.675,0.85,0.15]","","",""
"sailing-trial","247","998174","0.0-11.0-204.0","","","","false","","","","","","","","","","107.59999999403954","","130.09999999403954","","1","1","arrowleft","0","arrowright","[0.325,0.675,0.85,0.15]","","",""
"sailing-trial","248","1000560","0.0-11.0-205.0","","","","false","","","","","","","","","","null","","824.7000000029802","","1","1","null","null","arrowup","[0.325,0.675,0.85,0.15]","","",""
"sailing-trial","249","1002722","0.0-11.0-206.0","","","","false","","","","","","","","","","13.299999997019768","","93.5","","0","0","arrowleft","0","arrowleft","[0.325,0.675,0.85,0.15]","","",""
"sailing-trial","250","1005144","0.0-11.0-207.0","","","","false","","","","","","","","","","null","","778.9000000059605","","2","1","null","null","arrowup","[0.325,0.675,0.85,0.15]","","",""
"sailing-trial","251","1008091","0.0-11.0-208.0","","","","false","","","","","","","","","","411.09999999403954","","14.400000005960464","","1","1","arrowleft","0","arrowright","[0.325,0.675,0.85,0.15]","","",""
"sailing-trial","252","1009842","0.0-11.0-209.0","","","","false","","","","","","","","","","null","","81.20000000298023","","2","1","null","null","arrowup","[0.325,0.675,0.85,0.15]","","",""
"sailing-trial","253","1012658","0.0-11.0-210.0","","","","false","","","","","","","","","","88.79999999701977","","110","","1","1","arrowleft","0","arrowright","[0.325,0.675,0.85,0.15]","","",""
"sailing-trial","254","1013882","0.0-11.0-211.0","","","","false","","","","","","","","","","null","","122.3999999910593","","3","0","null","null","arrowup","[0.325,0.675,0.85,0.15]","","",""
"sailing-trial","255","1016608","0.0-11.0-212.0","","","","false","","","","","","","","","","83.79999999701977","","0.4000000059604645","","1","1","arrowleft","0","arrowright","[0.325,0.675,0.85,0.15]","","",""
"sailing-trial","256","1018435","0.0-11.0-213.0","","","","false","","","","","","","","","","null","","790.5","","1","0","null","null","arrowup","[0.325,0.675,0.85,0.15]","","",""
"sailing-trial","257","1021159","0.0-11.0-214.0","","","","false","","","","","","","","","","92.79999999701977","","31.799999997019768","","1","1","arrowleft","0","arrowright","[0.15,0.85,0.675,0.325]","","",""
"sailing-trial","258","1022555","0.0-11.0-215.0","","","","false","","","","","","","","","","null","","155.5","","2","0","null","null","arrowup","[0.15,0.85,0.675,0.325]","","",""
"sailing-trial","259","1024945","0.0-11.0-216.0","","","","false","","","","","","","","","","154.20000000298023","","154","","0","0","arrowleft","0","arrowleft","[0.15,0.85,0.675,0.325]","","",""
"sailing-trial","260","1026626","0.0-11.0-217.0","","","","false","","","","","","","","","","null","","149.5","","2","1","null","null","arrowup","[0.15,0.85,0.675,0.325]","","",""
"sailing-trial","261","1029956","0.0-11.0-218.0","","","","false","","","","","","","","","","63.8999999910593","","240.90000000596046","","0","1","arrowleft","0","arrowleft","[0.15,0.85,0.675,0.325]","","",""
"sailing-trial","262","1032384","0.0-11.0-219.0","","","","false","","","","","","","","","","null","","1327.2999999970198","","0","0","null","null","arrowup","[0.15,0.85,0.675,0.325]","","",""
"sailing-trial","263","1035313","0.0-11.0-220.0","","","","false","","","","","","","","","","280.90000000596046","","144.29999999701977","","0","0","arrowleft","0","arrowleft","[0.15,0.85,0.675,0.325]","","",""
"sailing-trial","264","1038056","0.0-11.0-221.0","","","","false","","","","","","","","","","null","","1163.7999999970198","","1","1","null","null","arrowup","[0.15,0.85,0.675,0.325]","","",""
"sailing-trial","265","1040650","0.0-11.0-222.0","","","","false","","","","","","","","","","123.5","","183.79999999701977","","2","0","arrowright","1","arrowleft","[0.15,0.85,0.675,0.325]","","",""
"sailing-trial","266","1041893","0.0-11.0-223.0","","","","false","","","","","","","","","","null","","126.29999999701977","","1","0","null","null","arrowup","[0.15,0.85,0.675,0.325]","","",""
"sailing-trial","267","1044724","0.0-11.0-224.0","","","","false","","","","","","","","","","101.19999998807907","","44.5","","3","1","arrowright","1","arrowright","[0.15,0.85,0.675,0.325]","","",""
"sailing-trial","268","1046693","0.0-11.0-225.0","","","","false","","","","","","","","","","null","","212.90000000596046","","1","1","null","null","arrowup","[0.15,0.85,0.675,0.325]","","",""
"sailing-trial","269","1050066","0.0-11.0-226.0","","","","false","","","","","","","","","","95.30000001192093","","204.79999999701977","","3","0","arrowright","1","arrowright","[0.15,0.85,0.675,0.325]","","",""
"sailing-trial","270","1053244","0.0-11.0-227.0","","","","false","","","","","","","","","","null","","151.70000000298023","","1","0","null","null","arrowup","[0.15,0.85,0.675,0.325]","","",""
"sailing-trial","271","1056403","0.0-11.0-228.0","","","","false","","","","","","","","","","456.1000000089407","","204.59999999403954","","3","0","arrowright","1","arrowright","[0.15,0.85,0.675,0.325]","","",""
"sailing-trial","272","1060538","0.0-11.0-229.0","","","","false","","","","","","","","","","null","","805","","3","1","null","null","arrowup","[0.15,0.85,0.675,0.325]","","",""
"sailing-trial","273","1063258","0.0-11.0-230.0","","","","false","","","","","","","","","","394","","207.1000000089407","","2","0","arrowright","1","arrowleft","[0.15,0.85,0.675,0.325]","","",""
"sailing-trial","274","1064405","0.0-11.0-231.0","","","","false","","","","","","","","","","null","","117.3999999910593","","2","0","null","null","arrowup","[0.15,0.85,0.675,0.325]","","",""
"sailing-trial","275","1067456","0.0-11.0-232.0","","","","false","","","","","","","","","","853.3999999910593","","189.6000000089407","","3","0","arrowright","1","arrowright","[0.15,0.85,0.675,0.325]","","",""
"sailing-trial","276","1070089","0.0-11.0-233.0","","","","false","","","","","","","","","","null","","406.90000000596046","","2","1","null","null","arrowup","[0.15,0.85,0.675,0.325]","","",""
"sailing-trial","277","1073410","0.0-11.0-234.0","","","","false","","","","","","","","","","733.7999999970198","","317.40000000596046","","0","0","arrowleft","0","arrowleft","[0.15,0.85,0.675,0.325]","","",""
"sailing-trial","278","1075375","0.0-11.0-235.0","","","","false","","","","","","","","","","null","","93","","1","1","null","null","arrowup","[0.15,0.85,0.675,0.325]","","",""
"sailing-trial","279","1078339","0.0-11.0-236.0","","","","false","","","","","","","","","","51.79999999701977","","105.59999999403954","","1","1","arrowleft","0","arrowright","[0.15,0.85,0.675,0.325]","","",""
"sailing-trial","280","1081189","0.0-11.0-237.0","","","","false","","","","","","","","","","null","","1302.7999999970198","","2","1","null","null","arrowup","[0.15,0.85,0.675,0.325]","","",""
"sailing-trial","281","1083973","0.0-11.0-238.0","","","","false","","","","","","","","","","0.10000000894069672","","143.79999999701977","","1","1","arrowleft","0","arrowright","[0.325,0.675,0.85,0.15]","","",""
"sailing-trial","282","1085674","0.0-11.0-239.0","","","","false","","","","","","","","","","null","","17.5","","3","1","null","null","arrowup","[0.325,0.675,0.85,0.15]","","",""
"sailing-trial","283","1088791","0.0-11.0-240.0","","","","false","","","","","","","","","","142.70000000298023","","136.90000000596046","","1","1","arrowleft","0","arrowright","[0.325,0.675,0.85,0.15]","","",""
"sailing-trial","284","1090940","0.0-11.0-241.0","","","","false","","","","","","","","","","null","","100.40000000596046","","0","1","null","null","arrowup","[0.325,0.675,0.85,0.15]","","",""
"sailing-trial","285","1093258","0.0-11.0-242.0","","","","false","","","","","","","","","","209.29999999701977","","69","","1","0","arrowleft","0","arrowright","[0.325,0.675,0.85,0.15]","","",""
"sailing-trial","286","1095022","0.0-11.0-243.0","","","","false","","","","","","","","","","null","","239.6000000089407","","1","1","null","null","arrowup","[0.325,0.675,0.85,0.15]","","",""
"sailing-trial","287","1097491","0.0-11.0-244.0","","","","false","","","","","","","","","","274.09999999403954","","60.099999994039536","","3","0","arrowright","1","arrowright","[0.325,0.675,0.85,0.15]","","",""
"sailing-trial","288","1099238","0.0-11.0-245.0","","","","false","","","","","","","","","","null","","105.5","","1","1","null","null","arrowup","[0.325,0.675,0.85,0.15]","","",""
"sailing-trial","289","1101905","0.0-11.0-246.0","","","","false","","","","","","","","","","60.099999994039536","","65.5","","0","1","arrowleft","0","arrowleft","[0.325,0.675,0.85,0.15]","","",""
"sailing-trial","290","1103641","0.0-11.0-247.0","","","","false","","","","","","","","","","null","","140.19999998807907","","3","1","null","null","arrowup","[0.325,0.675,0.85,0.15]","","",""
"sailing-trial","291","1106739","0.0-11.0-248.0","","","","false","","","","","","","","","","214.40000000596046","","357.59999999403954","","0","1","arrowleft","0","arrowleft","[0.325,0.675,0.85,0.15]","","",""
"sailing-trial","292","1107999","0.0-11.0-249.0","","","","false","","","","","","","","","","null","","77.20000000298023","","3","0","null","null","arrowup","[0.325,0.675,0.85,0.15]","","",""
"sailing-trial","293","1110611","0.0-11.0-250.0","","","","false","","","","","","","","","","126.1000000089407","","319.6000000089407","","0","0","arrowleft","0","arrowleft","[0.325,0.675,0.85,0.15]","","",""
"sailing-trial","294","1112109","0.0-11.0-251.0","","","","false","","","","","","","","","","null","","376.09999999403954","","1","0","null","null","arrowup","[0.325,0.675,0.85,0.15]","","",""
"sailing-trial","295","1115305","0.0-11.0-252.0","","","","false","","","","","","","","","","16.400000005960464","","118.29999999701977","","2","1","arrowright","1","arrowleft","[0.325,0.675,0.85,0.15]","","",""
"sailing-trial","296","1116815","0.0-11.0-253.0","","","","false","","","","","","","","","","null","","158.29999999701977","","0","0","null","null","arrowup","[0.325,0.675,0.85,0.15]","","",""
"sailing-trial","297","1119515","0.0-11.0-254.0","","","","false","","","","","","","","","","170.20000000298023","","63.900000005960464","","3","0","arrowright","1","arrowright","[0.325,0.675,0.85,0.15]","","",""
"sailing-trial","298","1121608","0.0-11.0-255.0","","","","false","","","","","","","","","","null","","162.5","","2","1","null","null","arrowup","[0.325,0.675,0.85,0.15]","","",""
"sailing-trial","299","1124041","0.0-11.0-256.0","","","","false","","","","","","","","","","60.20000000298023","","282.3999999910593","","3","0","arrowright","1","arrowright","[0.325,0.675,0.85,0.15]","","",""
"sailing-trial","300","1125889","0.0-11.0-257.0","","","","false","","","","","","","","","","null","","164.30000001192093","","1","1","null","null","arrowup","[0.325,0.675,0.85,0.15]","","",""
"sailing-trial","301","1129089","0.0-11.0-258.0","","","","false","","","","","","","","","","380.80000001192093","","53.70000000298023","","1","1","arrowleft","0","arrowright","[0.15,0.85,0.675,0.325]","","",""
"sailing-trial","302","1130686","0.0-11.0-259.0","","","","false","","","","","","","","","","null","","135.70000000298023","","0","0","null","null","arrowup","[0.15,0.85,0.675,0.325]","","",""
"sailing-trial","303","1133456","0.0-11.0-260.0","","","","false","","","","","","","","","","116.40000000596046","","62.900000005960464","","1","1","arrowleft","0","arrowright","[0.15,0.85,0.675,0.325]","","",""
"sailing-trial","304","1135068","0.0-11.0-261.0","","","","false","","","","","","","","","","null","","286.20000000298023","","2","0","null","null","arrowup","[0.15,0.85,0.675,0.325]","","",""
"sailing-trial","305","1137654","0.0-11.0-262.0","","","","false","","","","","","","","","","144.29999999701977","","249.69999998807907","","0","0","arrowleft","0","arrowleft","[0.15,0.85,0.675,0.325]","","",""
"sailing-trial","306","1140172","0.0-11.0-263.0","","","","false","","","","","","","","","","null","","415.1000000089407","","2","1","null","null","arrowup","[0.15,0.85,0.675,0.325]","","",""
"sailing-trial","307","1143190","0.0-11.0-264.0","","","","false","","","","","","","","","","910.5","","6.899999991059303","","0","0","arrowleft","0","arrowleft","[0.15,0.85,0.675,0.325]","","",""
"sailing-trial","308","1144424","0.0-11.0-265.0","","","","false","","","","","","","","","","null","","50.3999999910593","","3","0","null","null","arrowup","[0.15,0.85,0.675,0.325]","","",""
"sailing-trial","309","1146688","0.0-11.0-266.0","","","","false","","","","","","","","","","71.8999999910593","","20.299999997019768","","2","0","arrowright","1","arrowleft","[0.15,0.85,0.675,0.325]","","",""
"sailing-trial","310","1147953","0.0-11.0-267.0","","","","false","","","","","","","","","","null","","47.599999994039536","","0","0","null","null","arrowup","[0.15,0.85,0.675,0.325]","","",""
"sailing-trial","311","1150355","0.0-11.0-268.0","","","","false","","","","","","","","","","82.29999999701977","","206.70000000298023","","3","0","arrowright","1","arrowright","[0.15,0.85,0.675,0.325]","","",""
"sailing-trial","312","1151599","0.0-11.0-269.0","","","","false","","","","","","","","","","null","","111.29999999701977","","0","0","null","null","arrowup","[0.15,0.85,0.675,0.325]","","",""
"sailing-trial","313","1155443","0.0-11.0-270.0","","","","false","","","","","","","","","","915.5999999940395","","271.19999998807907","","3","0","arrowright","1","arrowright","[0.15,0.85,0.675,0.325]","","",""
"sailing-trial","314","1156891","0.0-11.0-271.0","","","","false","","","","","","","","","","null","","324.79999999701977","","0","0","null","null","arrowup","[0.15,0.85,0.675,0.325]","","",""
"sailing-trial","315","1159513","0.0-11.0-272.0","","","","false","","","","","","","","","","546.7999999970198","","45.29999999701977","","1","0","arrowleft","0","arrowright","[0.15,0.85,0.675,0.325]","","",""
"sailing-trial","316","1161720","0.0-11.0-273.0","","","","false","","","","","","","","","","null","","696.8999999910593","","2","1","null","null","arrowup","[0.15,0.85,0.675,0.325]","","",""
"sailing-trial","317","1164339","0.0-11.0-274.0","","","","false","","","","","","","","","","61.79999999701977","","43.3999999910593","","0","1","arrowleft","0","arrowleft","[0.15,0.85,0.675,0.325]","","",""
"sailing-trial","318","1166137","0.0-11.0-275.0","","","","false","","","","","","","","","","null","","590.5","","3","0","null","null","arrowup","[0.15,0.85,0.675,0.325]","","",""
"sailing-trial","319","1168905","0.0-11.0-276.0","","","","false","","","","","","","","","","507.1000000089407","","125.29999999701977","","2","0","arrowright","1","arrowleft","[0.15,0.85,0.675,0.325]","","",""
"sailing-trial","320","1171278","0.0-11.0-277.0","","","","false","","","","","","","","","","null","","1264.9000000059605","","1","0","null","null","arrowup","[0.15,0.85,0.675,0.325]","","",""
"sailing-trial","321","1173368","0.0-11.0-278.0","","","","false","","","","","","","","","","27.399999991059303","","27.5","","0","0","arrowleft","0","arrowleft","[0.15,0.85,0.675,0.325]","","",""
"sailing-trial","322","1174759","0.0-11.0-279.0","","","","false","","","","","","","","","","null","","52.8999999910593","","0","0","null","null","arrowup","[0.15,0.85,0.675,0.325]","","",""
"sailing-trial","323","1177035","0.0-11.0-280.0","","","","false","","","","","","","","","","84.1000000089407","","4.399999991059303","","3","0","arrowright","1","arrowright","[0.325,0.675,0.85,0.15]","","",""
"sailing-trial","324","1178714","0.0-11.0-281.0","","","","false","","","","","","","","","","null","","565.2999999970198","","2","0","null","null","arrowup","[0.325,0.675,0.85,0.15]","","",""
"sailing-trial","325","1182153","0.0-11.0-282.0","","","","false","","","","","","","","","","110.3999999910593","","150.59999999403954","","0","1","arrowleft","0","arrowleft","[0.325,0.675,0.85,0.15]","","",""
"sailing-trial","326","1184902","0.0-11.0-283.0","","","","false","","","","","","","","","","null","","1630.0999999940395","","1","0","null","null","arrowup","[0.325,0.675,0.85,0.15]","","",""
"sailing-trial","327","1188337","0.0-11.0-284.0","","","","false","","","","","","","","","","20.400000005960464","","820.1000000089407","","0","1","arrowleft","0","arrowleft","[0.325,0.675,0.85,0.15]","","",""
"sailing-trial","328","1190304","0.0-11.0-285.0","","","","false","","","","","","","","","","null","","96.40000000596046","","2","1","null","null","arrowup","[0.325,0.675,0.85,0.15]","","",""
"sailing-trial","329","1193028","0.0-11.0-286.0","","","","false","","","","","","","","","","463.29999999701977","","138.20000000298023","","0","0","arrowleft","0","arrowleft","[0.325,0.675,0.85,0.15]","","",""
"sailing-trial","330","1194954","0.0-11.0-287.0","","","","false","","","","","","","","","","null","","264.6000000089407","","3","1","null","null","arrowup","[0.325,0.675,0.85,0.15]","","",""
"sailing-trial","331","1197260","0.0-11.0-288.0","","","","false","","","","","","","","","","59.29999999701977","","49.599999994039536","","0","0","arrowleft","0","arrowleft","[0.325,0.675,0.85,0.15]","","",""
"sailing-trial","332","1198530","0.0-11.0-289.0","","","","false","","","","","","","","","","null","","143","","3","0","null","null","arrowup","[0.325,0.675,0.85,0.15]","","",""
"sailing-trial","333","1201670","0.0-11.0-290.0","","","","false","","","","","","","","","","488.70000000298023","","31.599999994039536","","2","1","arrowright","1","arrowleft","[0.325,0.675,0.85,0.15]","","",""
"sailing-trial","334","1205737","0.0-11.0-291.0","","","","false","","","","","","","","","","null","","1044.3999999910593","","1","0","null","null","arrowup","[0.325,0.675,0.85,0.15]","","",""
"sailing-trial","335","1208668","0.0-11.0-292.0","","","","false","","","","","","","","","","95.79999999701977","","115.5","","2","1","arrowright","1","arrowleft","[0.325,0.675,0.85,0.15]","","",""
"sailing-trial","336","1211088","0.0-11.0-293.0","","","","false","","","","","","","","","","null","","896.6999999880791","","3","1","null","null","arrowup","[0.325,0.675,0.85,0.15]","","",""
"sailing-trial","337","1213819","0.0-11.0-294.0","","","","false","","","","","","","","","","27.80000001192093","","67.59999999403954","","2","1","arrowright","1","arrowleft","[0.325,0.675,0.85,0.15]","","",""
"sailing-trial","338","1215683","0.0-11.0-295.0","","","","false","","","","","","","","","","null","","725.8999999910593","","0","0","null","null","arrowup","[0.325,0.675,0.85,0.15]","","",""
"sailing-trial","339","1218736","0.0-11.0-296.0","","","","false","","","","","","","","","","23","","76.8999999910593","","2","0","arrowright","1","arrowleft","[0.15,0.85,0.675,0.325]","","",""
"sailing-trial","340","1221452","0.0-11.0-297.0","","","","false","","","","","","","","","","null","","1185.0999999940395","","2","1","null","null","arrowup","[0.15,0.85,0.675,0.325]","","",""
"sailing-trial","341","1224043","0.0-11.0-298.0","","","","false","","","","","","","","","","77.30000001192093","","115.90000000596046","","3","0","arrowright","1","arrowright","[0.15,0.85,0.675,0.325]","","",""
"sailing-trial","342","1225762","0.0-11.0-299.0","","","","false","","","","","","","","","","null","","219","","3","0","null","null","arrowup","[0.15,0.85,0.675,0.325]","","",""
"sailing-trial","343","1228453","0.0-11.0-300.0","","","","false","","","","","","","","","","564.2000000029802","","87.59999999403954","","1","0","arrowleft","0","arrowright","[0.15,0.85,0.675,0.325]","","",""
"sailing-trial","344","1230071","0.0-11.0-301.0","","","","false","","","","","","","","","","null","","43","","1","1","null","null","arrowup","[0.15,0.85,0.675,0.325]","","",""
"sailing-trial","345","1233152","0.0-11.0-302.0","","","","false","","","","","","","","","","421.8999999910593","","74.1000000089407","","2","1","arrowright","1","arrowleft","[0.15,0.85,0.675,0.325]","","",""
"sailing-trial","346","1234768","0.0-11.0-303.0","","","","false","","","","","","","","","","null","","71.70000000298023","","3","1","null","null","arrowup","[0.15,0.85,0.675,0.325]","","",""
"sailing-trial","347","1237472","0.0-11.0-304.0","","","","false","","","","","","","","","","13.400000005960464","","152.79999999701977","","1","1","arrowleft","0","arrowright","[0.15,0.85,0.675,0.325]","","",""
"sailing-trial","348","1239316","0.0-11.0-305.0","","","","false","","","","","","","","","","null","","758.4000000059605","","0","0","null","null","arrowup","[0.15,0.85,0.675,0.325]","","",""
"sailing-trial","349","1241615","0.0-11.0-306.0","","","","false","","","","","","","","","","99.1000000089407","","38.599999994039536","","1","0","arrowleft","0","arrowright","[0.15,0.85,0.675,0.325]","","",""
"sailing-trial","350","1243885","0.0-11.0-307.0","","","","false","","","","","","","","","","null","","1086","","0","0","null","null","arrowup","[0.15,0.85,0.675,0.325]","","",""
"sailing-trial","351","1247169","0.0-11.0-308.0","","","","false","","","","","","","","","","54.400000005960464","","142.40000000596046","","0","1","arrowleft","0","arrowleft","[0.15,0.85,0.675,0.325]","","",""
"sailing-trial","352","1249475","0.0-11.0-309.0","","","","false","","","","","","","","","","null","","1249","","0","0","null","null","arrowup","[0.15,0.85,0.675,0.325]","","",""
"sailing-trial","353","1252095","0.0-11.0-310.0","","","","false","","","","","","","","","","173.5","","122.5","","0","0","arrowleft","0","arrowleft","[0.15,0.85,0.675,0.325]","","",""
"sailing-trial","354","1254284","0.0-11.0-311.0","","","","false","","","","","","","","","","null","","1028.5","","0","0","null","null","arrowup","[0.15,0.85,0.675,0.325]","","",""
"sailing-trial","355","1256627","0.0-11.0-312.0","","","","false","","","","","","","","","","16","","63.29999999701977","","3","0","arrowright","1","arrowright","[0.325,0.675,0.85,0.15]","","",""
"sailing-trial","356","1259294","0.0-11.0-313.0","","","","false","","","","","","","","","","null","","1398","","1","0","null","null","arrowup","[0.325,0.675,0.85,0.15]","","",""
"sailing-trial","357","1261914","0.0-11.0-314.0","","","","false","","","","","","","","","","196.5","","311.5","","3","0","arrowright","1","arrowright","[0.325,0.675,0.85,0.15]","","",""
"sailing-trial","358","1265719","0.0-11.0-315.0","","","","false","","","","","","","","","","null","","1611.0999999940395","","1","1","null","null","arrowup","[0.325,0.675,0.85,0.15]","","",""
"sailing-trial","359","1268093","0.0-11.0-316.0","","","","false","","","","","","","","","","120.29999999701977","","191.59999999403954","","0","0","arrowleft","0","arrowleft","[0.325,0.675,0.85,0.15]","","",""
"sailing-trial","360","1270236","0.0-11.0-317.0","","","","false","","","","","","","","","","null","","522.9000000059605","","3","1","null","null","arrowup","[0.325,0.675,0.85,0.15]","","",""
"sailing-trial","361","1272517","0.0-11.0-318.0","","","","false","","","","","","","","","","11.200000002980232","","134.09999999403954","","3","0","arrowright","1","arrowright","[0.325,0.675,0.85,0.15]","","",""
"sailing-trial","362","1275234","0.0-11.0-319.0","","","","false","","","","","","","","","","null","","1203.5999999940395","","2","1","null","null","arrowup","[0.325,0.675,0.85,0.15]","","",""
"sailing-trial","363","1277757","0.0-11.0-320.0","","","","false","","","","","","","","","","411.70000000298023","","108.59999999403954","","0","0","arrowleft","0","arrowleft","[0.325,0.675,0.85,0.15]","","",""
"sailing-trial","364","1279717","0.0-11.0-321.0","","","","false","","","","","","","","","","null","","336.3999999910593","","0","1","null","null","arrowup","[0.325,0.675,0.85,0.15]","","",""
"sailing-trial","365","1281918","0.0-11.0-322.0","","","","false","","","","","","","","","","87.5","","13.299999997019768","","0","0","arrowleft","0","arrowleft","[0.325,0.675,0.85,0.15]","","",""
"sailing-trial","366","1284952","0.0-11.0-323.0","","","","false","","","","","","","","","","null","","1405.8999999910593","","1","1","null","null","arrowup","[0.325,0.675,0.85,0.15]","","",""
"sailing-trial","367","1287953","0.0-11.0-324.0","","","","false","","","","","","","","","","141.1000000089407","","108","","1","1","arrowleft","0","arrowright","[0.325,0.675,0.85,0.15]","","",""
"sailing-trial","368","1290270","0.0-11.0-325.0","","","","false","","","","","","","","","","null","","694","","0","1","null","null","arrowup","[0.325,0.675,0.85,0.15]","","",""
"sailing-trial","369","1293604","0.0-11.0-326.0","","","","false","","","","","","","","","","40.8999999910593","","99.19999998807907","","1","1","arrowleft","0","arrowright","[0.325,0.675,0.85,0.15]","","",""
"sailing-trial","370","1296518","0.0-11.0-327.0","","","","false","","","","","","","","","","null","","1324.2999999970198","","2","1","null","null","arrowup","[0.325,0.675,0.85,0.15]","","",""
"sailing-trial","371","1300552","0.0-11.0-328.0","","","","false","","","","","","","","","","1019.1000000089407","","421.20000000298023","","0","1","arrowleft","0","arrowleft","[0.675,0.325,0.15,0.85]","","",""
"sailing-trial","372","1302037","0.0-11.0-329.0","","","","false","","","","","","","","","","null","","421.1000000089407","","1","0","null","null","arrowup","[0.675,0.325,0.15,0.85]","","",""
"sailing-trial","373","1304641","0.0-11.0-330.0","","","","false","","","","","","","","","","341.20000000298023","","150","","1","0","arrowleft","0","arrowright","[0.675,0.325,0.15,0.85]","","",""
"sailing-trial","374","1306452","0.0-11.0-331.0","","","","false","","","","","","","","","","null","","286.5","","1","1","null","null","arrowup","[0.675,0.325,0.15,0.85]","","",""
"sailing-trial","375","1309551","0.0-11.0-332.0","","","","false","","","","","","","","","","180.6000000089407","","47.20000000298023","","3","1","arrowright","1","arrowright","[0.675,0.325,0.15,0.85]","","",""
"sailing-trial","376","1311083","0.0-11.0-333.0","","","","false","","","","","","","","","","null","","6.200000002980232","","3","1","null","null","arrowup","[0.675,0.325,0.15,0.85]","","",""
"sailing-trial","377","1313852","0.0-11.0-334.0","","","","false","","","","","","","","","","177.5","","67.09999999403954","","3","1","arrowright","1","arrowright","[0.675,0.325,0.15,0.85]","","",""
"sailing-trial","378","1316953","0.0-11.0-335.0","","","","false","","","","","","","","","","null","","1320.5","","1","1","null","null","arrowup","[0.675,0.325,0.15,0.85]","","",""
"sailing-trial","379","1320435","0.0-11.0-336.0","","","","false","","","","","","","","","","99.90000000596046","","387.3999999910593","","3","1","arrowright","1","arrowright","[0.675,0.325,0.15,0.85]","","",""
"sailing-trial","380","1322367","0.0-11.0-337.0","","","","false","","","","","","","","","","null","","106.40000000596046","","0","1","null","null","arrowup","[0.675,0.325,0.15,0.85]","","",""
"sailing-trial","381","1325135","0.0-11.0-338.0","","","","false","","","","","","","","","","126.09999999403954","","43.5","","3","1","arrowright","1","arrowright","[0.675,0.325,0.15,0.85]","","",""
"sailing-trial","382","1327740","0.0-11.0-339.0","","","","false","","","","","","","","","","null","","1457","","1","0","null","null","arrowup","[0.675,0.325,0.15,0.85]","","",""
"sailing-trial","383","1330784","0.0-11.0-340.0","","","","false","","","","","","","","","","116.5","","68.70000000298023","","3","1","arrowright","1","arrowright","[0.675,0.325,0.15,0.85]","","",""
"sailing-trial","384","1333766","0.0-11.0-341.0","","","","false","","","","","","","","","","null","","1412.9000000059605","","1","1","null","null","arrowup","[0.675,0.325,0.15,0.85]","","",""
"sailing-trial","385","1336449","0.0-11.0-342.0","","","","false","","","","","","","","","","110.5","","36.3999999910593","","3","1","arrowright","1","arrowright","[0.675,0.325,0.15,0.85]","","",""
"sailing-trial","386","1340050","0.0-11.0-343.0","","","","false","","","","","","","","","","null","","2035.7000000029802","","0","1","null","null","arrowup","[0.675,0.325,0.15,0.85]","","",""
"sailing-trial","387","1342900","0.0-11.0-344.0","","","","false","","","","","","","","","","49.3999999910593","","25.599999994039536","","3","1","arrowright","1","arrowright","[0.675,0.325,0.15,0.85]","","",""
"sailing-trial","388","1344332","0.0-11.0-345.0","","","","false","","","","","","","","","","null","","114.09999999403954","","2","0","null","null","arrowup","[0.675,0.325,0.15,0.85]","","",""
"sailing-trial","389","1348251","0.0-11.0-346.0","","","","false","","","","","","","","","","208.29999999701977","","5.899999991059303","","1","0","arrowleft","0","arrowright","[0.675,0.325,0.15,0.85]","","",""
"sailing-trial","390","1350100","0.0-11.0-347.0","","","","false","","","","","","","","","","null","","287.80000001192093","","3","1","null","null","arrowup","[0.675,0.325,0.15,0.85]","","",""
"sailing-trial","391","1353803","0.0-11.0-348.0","","","","false","","","","","","","","","","145.29999999701977","","121","","0","0","arrowleft","0","arrowleft","[0.15,0.85,0.675,0.325]","","",""
"sailing-trial","392","1355450","0.0-11.0-349.0","","","","false","","","","","","","","","","null","","67.5","","1","1","null","null","arrowup","[0.15,0.85,0.675,0.325]","","",""
"sailing-trial","393","1358099","0.0-11.0-350.0","","","","false","","","","","","","","","","72.40000000596046","","514.8999999910593","","2","0","arrowright","1","arrowleft","[0.15,0.85,0.675,0.325]","","",""
"sailing-trial","394","1359868","0.0-11.0-351.0","","","","false","","","","","","","","","","null","","53.20000000298023","","1","1","null","null","arrowup","[0.15,0.85,0.675,0.325]","","",""
"sailing-trial","395","1364198","0.0-11.0-352.0","","","","false","","","","","","","","","","922.2999999970198","","604.7999999970198","","1","1","arrowleft","0","arrowright","[0.15,0.85,0.675,0.325]","","",""
"sailing-trial","396","1367319","0.0-11.0-353.0","","","","false","","","","","","","","","","null","","106.6000000089407","","0","0","null","null","arrowup","[0.15,0.85,0.675,0.325]","","",""
"sailing-trial","397","1371051","0.0-11.0-354.0","","","","false","","","","","","","","","","497.09999999403954","","56.099999994039536","","3","1","arrowright","1","arrowright","[0.15,0.85,0.675,0.325]","","",""
"sailing-trial","398","1373117","0.0-11.0-355.0","","","","false","","","","","","","","","","null","","166","","2","1","null","null","arrowup","[0.15,0.85,0.675,0.325]","","",""
"sailing-trial","399","1376013","0.0-11.0-356.0","","","","false","","","","","","","","","","631","","137.5","","0","0","arrowleft","0","arrowleft","[0.15,0.85,0.675,0.325]","","",""
"sailing-trial","400","1378002","0.0-11.0-357.0","","","","false","","","","","","","","","","null","","384.79999999701977","","1","1","null","null","arrowup","[0.15,0.85,0.675,0.325]","","",""
"sailing-trial","401","1380527","0.0-11.0-358.0","","","","false","","","","","","","","","","426.5","","27.899999991059303","","0","0","arrowleft","0","arrowleft","[0.15,0.85,0.675,0.325]","","",""
"sailing-trial","402","1381782","0.0-11.0-359.0","","","","false","","","","","","","","","","null","","128.29999999701977","","1","0","null","null","arrowup","[0.15,0.85,0.675,0.325]","","",""
"sailing-trial","403","1384573","0.0-11.0-360.0","","","","false","","","","","","","","","","166.5","","93.70000000298023","","1","0","arrowleft","0","arrowright","[0.15,0.85,0.675,0.325]","","",""
"sailing-trial","404","1386185","0.0-11.0-361.0","","","","false","","","","","","","","","","null","","81.20000000298023","","2","1","null","null","arrowup","[0.15,0.85,0.675,0.325]","","",""
"sailing-trial","405","1389190","0.0-11.0-362.0","","","","false","","","","","","","","","","56.8999999910593","","733.4000000059605","","2","0","arrowright","1","arrowleft","[0.15,0.85,0.675,0.325]","","",""
"sailing-trial","406","1390489","0.0-11.0-363.0","","","","false","","","","","","","","","","null","","3.5999999940395355","","3","0","null","null","arrowup","[0.15,0.85,0.675,0.325]","","",""
"sailing-trial","407","1394132","0.0-11.0-364.0","","","","false","","","","","","","","","","415.40000000596046","","104.19999998807907","","1","1","arrowleft","0","arrowright","[0.325,0.675,0.85,0.15]","","",""
"sailing-trial","408","1395540","0.0-11.0-365.0","","","","false","","","","","","","","","","null","","136.59999999403954","","0","0","null","null","arrowup","[0.325,0.675,0.85,0.15]","","",""
"sailing-trial","409","1398632","0.0-11.0-366.0","","","","false","","","","","","","","","","250.59999999403954","","6.700000002980232","","2","1","arrowright","1","arrowleft","[0.325,0.675,0.85,0.15]","","",""
"sailing-trial","410","1399794","0.0-11.0-367.0","","","","false","","","","","","","","","","null","","96.5","","0","0","null","null","arrowup","[0.325,0.675,0.85,0.15]","","",""
"sailing-trial","411","1402281","0.0-11.0-368.0","","","","false","","","","","","","","","","66.6000000089407","","337.3999999910593","","3","0","arrowright","1","arrowright","[0.325,0.675,0.85,0.15]","","",""
"sailing-trial","412","1404799","0.0-11.0-369.0","","","","false","","","","","","","","","","null","","149.20000000298023","","1","1","null","null","arrowup","[0.325,0.675,0.85,0.15]","","",""
"sailing-trial","413","1407699","0.0-11.0-370.0","","","","false","","","","","","","","","","148.5","","71.8999999910593","","3","1","arrowright","1","arrowright","[0.325,0.675,0.85,0.15]","","",""
"sailing-trial","414","1409931","0.0-11.0-371.0","","","","false","","","","","","","","","","null","","153.79999999701977","","1","1","null","null","arrowup","[0.325,0.675,0.85,0.15]","","",""
"sailing-trial","415","1416901","0.0-11.0-372.0","","","","false","","","","","","","","","","10.799999997019768","","753.0999999940395","","3","1","arrowright","1","arrowright","[0.325,0.675,0.85,0.15]","","",""
"sailing-trial","416","1418664","0.0-11.0-373.0","","","","false","","","","","","","","","","null","","37.29999999701977","","2","1","null","null","arrowup","[0.325,0.675,0.85,0.15]","","",""
"sailing-trial","417","1421298","0.0-11.0-374.0","","","","false","","","","","","","","","","131.29999999701977","","162.79999999701977","","3","0","arrowright","1","arrowright","[0.325,0.675,0.85,0.15]","","",""
"sailing-trial","418","1422746","0.0-11.0-375.0","","","","false","","","","","","","","","","null","","180.59999999403954","","0","0","null","null","arrowup","[0.325,0.675,0.85,0.15]","","",""
"sailing-trial","419","1426897","0.0-11.0-376.0","","","","false","","","","","","","","","","96.6000000089407","","912.7000000029802","","3","0","arrowright","1","arrowright","[0.325,0.675,0.85,0.15]","","",""
"sailing-trial","420","1428477","0.0-11.0-377.0","","","","false","","","","","","","","","","null","","344.20000000298023","","0","0","null","null","arrowup","[0.325,0.675,0.85,0.15]","","",""
"sailing-trial","421","1431450","0.0-11.0-378.0","","","","false","","","","","","","","","","276.1000000089407","","98.8999999910593","","0","1","arrowleft","0","arrowleft","[0.325,0.675,0.85,0.15]","","",""
"sailing-trial","422","1433881","0.0-11.0-379.0","","","","false","","","","","","","","","","null","","134.59999999403954","","3","1","null","null","arrowup","[0.325,0.675,0.85,0.15]","","",""
"sailing-trial","423","1436444","0.0-11.0-380.0","","","","false","","","","","","","","","","169.90000000596046","","149.70000000298023","","0","0","arrowleft","0","arrowleft","[0.325,0.675,0.85,0.15]","","",""
"sailing-trial","424","1438231","0.0-11.0-381.0","","","","false","","","","","","","","","","null","","73.29999999701977","","0","1","null","null","arrowup","[0.325,0.675,0.85,0.15]","","",""
"sailing-trial","425","1442499","0.0-11.0-382.0","","","","false","","","","","","","","","","2","","248.79999999701977","","0","0","arrowleft","0","arrowleft","[0.325,0.675,0.85,0.15]","","",""
"sailing-trial","426","1444382","0.0-11.0-383.0","","","","false","","","","","","","","","","null","","113","","2","1","null","null","arrowup","[0.325,0.675,0.85,0.15]","","",""
"sailing-trial","427","1447232","0.0-11.0-384.0","","","","false","","","","","","","","","","56.79999999701977","","99.20000000298023","","1","1","arrowleft","0","arrowright","[0.85,0.15,0.325,0.675]","","",""
"sailing-trial","428","1449195","0.0-11.0-385.0","","","","false","","","","","","","","","","null","","940.7999999970198","","3","0","null","null","arrowup","[0.85,0.15,0.325,0.675]","","",""
"sailing-trial","429","1451583","0.0-11.0-386.0","","","","false","","","","","","","","","","261","","116.80000001192093","","1","0","arrowleft","0","arrowright","[0.85,0.15,0.325,0.675]","","",""
"sailing-trial","430","1454480","0.0-11.0-387.0","","","","false","","","","","","","","","","null","","1235.7999999970198","","2","1","null","null","arrowup","[0.85,0.15,0.325,0.675]","","",""
"sailing-trial","431","1457280","0.0-11.0-388.0","","","","false","","","","","","","","","","193.90000000596046","","20.700000002980232","","2","1","arrowright","1","arrowleft","[0.85,0.15,0.325,0.675]","","",""
"sailing-trial","432","1459031","0.0-11.0-389.0","","","","false","","","","","","","","","","null","","68.79999999701977","","0","1","null","null","arrowup","[0.85,0.15,0.325,0.675]","","",""
"sailing-trial","433","1461931","0.0-11.0-390.0","","","","false","","","","","","","","","","85.29999999701977","","155.70000000298023","","2","1","arrowright","1","arrowleft","[0.85,0.15,0.325,0.675]","","",""
"sailing-trial","434","1463252","0.0-11.0-391.0","","","","false","","","","","","","","","","null","","41.8999999910593","","2","0","null","null","arrowup","[0.85,0.15,0.325,0.675]","","",""
"sailing-trial","435","1466330","0.0-11.0-392.0","","","","false","","","","","","","","","","124.90000000596046","","168.3999999910593","","3","1","arrowright","1","arrowright","[0.85,0.15,0.325,0.675]","","",""
"sailing-trial","436","1468047","0.0-11.0-393.0","","","","false","","","","","","","","","","null","","54.099999994039536","","1","1","null","null","arrowup","[0.85,0.15,0.325,0.675]","","",""
"sailing-trial","437","1471847","0.0-11.0-394.0","","","","false","","","","","","","","","","833.1999999880791","","153.59999999403954","","3","1","arrowright","1","arrowright","[0.85,0.15,0.325,0.675]","","",""
"sailing-trial","438","1473034","0.0-11.0-395.0","","","","false","","","","","","","","","","null","","142.5","","1","0","null","null","arrowup","[0.85,0.15,0.325,0.675]","","",""
"sailing-trial","439","1475679","0.0-11.0-396.0","","","","false","","","","","","","","","","512.0999999940395","","96.69999998807907","","1","0","arrowleft","0","arrowright","[0.85,0.15,0.325,0.675]","","",""
"sailing-trial","440","1477565","0.0-11.0-397.0","","","","false","","","","","","","","","","null","","103.79999999701977","","0","1","null","null","arrowup","[0.85,0.15,0.325,0.675]","","",""
"sailing-trial","441","1480630","0.0-11.0-398.0","","","","false","","","","","","","","","","302.8999999910593","","160","","0","1","arrowleft","0","arrowleft","[0.85,0.15,0.325,0.675]","","",""
"sailing-trial","442","1481959","0.0-11.0-399.0","","","","false","","","","","","","","","","null","","137.29999999701977","","1","0","null","null","arrowup","[0.85,0.15,0.325,0.675]","","",""
"instructions","443","1485421","0.0-12.0","","","","","","","","","","3461.2999999970198","","","","","","","","","","","","","","","","[{""page_index"":0,""viewing_time"":3461}]"
"survey-debrief","444","1514627","0.0-13.0","","","","","","","","","","29203.90000000596","","","","","","","","","","","","","","{""difficulty"":""3"",""fun"":""4"",""clarity"":""4"",""strategy"":""I memorizes the colors "",""feedback"":""""}","",""
