"trial_type","trial_index","time_elapsed","internal_node_id","value","metadata","success","timeout","failed_images","failed_audio","failed_video","browser_interaction","low_quality","rt","stimulus","response","button_pressed","island_rt","island_response","boat_rt","boat_response","boat","reward","island_key","island","boat_key","reward_probabilities","responses","num_errors"
"pavlovia","0","1","0.0-0.0","","","","","","","","","","","","","","","","","","","","","","","","",""
"call-function","1","2","0.0-1.0","","{""task_version"":""sailing_part1_v1"",""task_condition"":""good"",""boats"":[""C"",""D"",""B"",""A""],""boats_demo"":[""E"",""G"",""F"",""H""],""islands"":[""B"",""A""],""subject_id"":""14616"",""age"":""12"",""gender"":""Male""}","","","","","","","","","","","","","","","","","","","","","","",""
"preload","2","1129","0.0-2.0","","","true","false","[]","[]","[]","[{""event"":""fullscreenenter"",""trial"":3,""time"":4001}]","false","","","","","","","","","","","","","","","",""
"fullscreen","3","4967","0.0-3.0","","","true","","","","","","","","","","","","","","","","","","","","","",""
"audio-keyboard-response","4","8266","0.0-4.0-0.0","","","","","","","","","","3258.6666666666665","audio/beep_loop.wav"," ","","","","","","","","","","","","",""
"audio-test","5","10481","0.0-4.0-1.0","","","","","","","","","","null","audio/turtle.mp3","","3","","","","","","","","","","","",""
"audio-test","6","13196","0.0-4.0-2.0","","","","","","","","","","null","audio/shark.mp3","","2","","","","","","","","","","","",""
"sailing-instructions","7","44477","0.0-5.0-0.0-0.0","","","","","","","","","","","","","","null","null","null","null","null","null","","","","","",""
"sailing-trial","8","49021","0.0-5.0-0.0-1.0-0.0","","","","false","","","","","","","","","","3419.300000011921","","null","","null","null","arrowleft","0","null","null","",""
"sailing-trial","9","53287","0.0-5.0-0.0-1.0-1.0","","","","false","","","","","","","","","","3169.099999964237","","null","","null","null","arrowright","1","null","null","",""
"sailing-trial","10","56255","0.0-5.0-0.0-1.0-2.0","","","","false","","","","","","","","","","1824.9000000357628","","null","","null","null","arrowleft","0","null","null","",""
"sailing-instructions","11","96698","0.0-5.0-0.0-2.0","","","","","","","","","","","","","","null","null","null","null","0","null","","","","","",""
"sailing-trial","12","102175","0.0-5.0-0.0-3.0-0.0","","","","false","","","","","","","","","","null","","2057.300000011921","","2","1","null","null","arrowleft","[1,1,1,1]","",""
"sailing-trial","13","106070","0.0-5.0-0.0-3.0-1.0","","","","false","","","","","","","","","","null","","1151.2000000476837","","3","1","null","null","arrowright","[1,1,1,1]","",""
"sailing-trial","14","110170","0.0-5.0-0.0-3.0-2.0","","","","false","","","","","","","","","","null","","1592.699999988079","","2","0","null","null","arrowleft","[0,0,0,0]","",""
"sailing-instructions","15","117531","0.0-5.0-0.0-4.0","","","","","","","","","","","","","","null","null","null","null","null","null","","","","","",""
"sailing-comprehension","16","134575","0.0-5.0-0.0-5.0","","","","","","","","","","14765.600000023842","","","","","","","","","","","","","","[""true"",""true"",""false"",""true""]","0"
"sailing-instructions","17","195224","0.0-6.0-0.0-0.0","","","","","","","","","","","","","","null","null","null","null","null","null","","","","","",""
"sailing-comprehension","18","211427","0.0-6.0-0.0-1.0","","","","","","","","","","14725.300000011921","","","","","","","","","","","","","","[""true"",""false"",""true""]","0"
"sailing-instructions","19","224916","0.0-7.0-0.0-0.0","","","","","","","","","","","","","","null","null","null","null","null","null","","","","","",""
"sailing-trial","20","230758","0.0-7.0-0.0-1.0-0.0","","","","false","","","","","","","","","","null","","3108.600000023842","","0","1","null","null","arrowup","[0.2,0.8,0.2,0.8]","",""
"sailing-trial","21","234241","0.0-7.0-0.0-1.0-1.0","","","","false","","","","","","","","","","null","","1415.300000011921","","1","1","null","null","arrowup","[0.2,0.8,0.2,0.8]","",""
"sailing-trial","22","237167","0.0-7.0-0.0-1.0-2.0","","","","false","","","","","","","","","","null","","1369.9000000357628","","2","0","null","null","arrowup","[0.2,0.8,0.2,0.8]","",""
"sailing-trial","23","239327","0.0-7.0-0.0-1.0-3.0","","","","false","","","","","","","","","","null","","618.5999999642372","","3","0","null","null","arrowup","[0.2,0.8,0.2,0.8]","",""
"sailing-comprehension","24","247973","0.0-7.0-0.0-2.0","","","","","","","","","","6822.699999988079","","","","","","","","","","","","","","[""false""]","0"
"sailing-instructions","25","259158","0.0-8.0-0.0-0.0","","","","","","","","","","","","","","null","null","null","null","null","null","","","","","",""
"sailing-comprehension","26","265467","0.0-8.0-0.0-1.0","","","","","","","","","","4975","","","","","","","","","","","","","","[""true""]","0"
"sailing-instructions","27","292753","0.0-9.0-0.0-0.0","","","","","","","","","","","","","","null","null","null","null","null","null","","","","","",""
"sailing-trial","28","297057","0.0-9.0-0.0-1.0-0.0","","","","false","","","","","","","","","","727","","262","","0","1","arrowleft","0","arrowleft","[0.2,0.8,0.2,0.8]","",""
"sailing-trial","29","302226","0.0-9.0-0.0-1.0-1.0","","","","false","","","","","","","","","","805.1999999880791","","2103.599999964237","","3","0","arrowright","1","arrowright","[0.2,0.8,0.2,0.8]","",""
"sailing-trial","30","304671","0.0-9.0-0.0-1.0-2.0","","","","false","","","","","","","","","","null","","1064.300000011921","","0","0","null","null","arrowup","[0.2,0.8,0.2,0.8]","",""
"sailing-trial","31","308892","0.0-9.0-0.0-1.0-3.0","","","","false","","","","","","","","","","784.8999999761581","","148.10000002384186","","1","1","arrowleft","0","arrowright","[0.2,0.8,0.2,0.8]","",""
"sailing-trial","32","312258","0.0-9.0-0.0-1.0-4.0","","","","false","","","","","","","","","","null","","1086.3999999761581","","3","1","null","null","arrowup","[0.2,0.8,0.2,0.8]","",""
"sailing-trial","33","316191","0.0-9.0-0.0-1.0-5.0","","","","false","","","","","","","","","","438.5","","122","","0","1","arrowleft","0","arrowleft","[0.2,0.8,0.2,0.8]","",""
"sailing-instructions","34","343586","0.0-10.0","","","","","","","","","","","","","","null","null","null","null","null","null","","","","","",""
"sailing-trial","35","347724","0.0-11.0-0.0","","","","false","","","","","","","","","","654.2999999523163","","622.8999999761581","","0","1","arrowleft","0","arrowleft","[0.675,0.325,0.85,0.15]","",""
"sailing-trial","36","350740","0.0-11.0-1.0","","","","false","","","","","","","","","","null","","1274.1000000238419","","3","0","null","null","arrowup","[0.675,0.325,0.85,0.15]","",""
"sailing-trial","37","354909","0.0-11.0-2.0","","","","false","","","","","","","","","","841.5","","566.6000000238419","","2","1","arrowright","1","arrowleft","[0.675,0.325,0.85,0.15]","",""
"sailing-trial","38","357574","0.0-11.0-3.0","","","","false","","","","","","","","","","null","","927.5999999642372","","0","1","null","null","arrowup","[0.675,0.325,0.85,0.15]","",""
"sailing-trial","39","361857","0.0-11.0-4.0","","","","false","","","","","","","","","","491.39999997615814","","952.5","","1","1","arrowleft","0","arrowright","[0.675,0.325,0.85,0.15]","",""
"sailing-trial","40","364603","0.0-11.0-5.0","","","","false","","","","","","","","","","null","","1034.7000000476837","","3","0","null","null","arrowup","[0.675,0.325,0.85,0.15]","",""
"sailing-trial","41","367814","0.0-11.0-6.0","","","","false","","","","","","","","","","510.60000002384186","","39.39999997615814","","0","0","arrowleft","0","arrowleft","[0.675,0.325,0.85,0.15]","",""
"sailing-trial","42","370824","0.0-11.0-7.0","","","","false","","","","","","","","","","null","","897.6000000238419","","2","1","null","null","arrowup","[0.675,0.325,0.85,0.15]","",""
"sailing-trial","43","374492","0.0-11.0-8.0","","","","false","","","","","","","","","","524.5999999642372","","281.5","","2","1","arrowright","1","arrowleft","[0.675,0.325,0.85,0.15]","",""
"sailing-trial","44","377309","0.0-11.0-9.0","","","","false","","","","","","","","","","null","","874.2999999523163","","0","1","null","null","arrowup","[0.675,0.325,0.85,0.15]","",""
"sailing-trial","45","380625","0.0-11.0-10.0","","","","false","","","","","","","","","","379.19999998807907","","101.80000001192093","","2","1","arrowright","1","arrowleft","[0.675,0.325,0.85,0.15]","",""
"sailing-trial","46","382990","0.0-11.0-11.0","","","","false","","","","","","","","","","null","","552.3000000119209","","2","1","null","null","arrowup","[0.675,0.325,0.85,0.15]","",""
"sailing-trial","47","386615","0.0-11.0-12.0","","","","false","","","","","","","","","","417.89999997615814","","330.80000001192093","","2","0","arrowright","1","arrowleft","[0.675,0.325,0.85,0.15]","",""
"sailing-trial","48","390696","0.0-11.0-13.0","","","","false","","","","","","","","","","null","","1081.300000011921","","0","0","null","null","arrowup","[0.675,0.325,0.85,0.15]","",""
"sailing-trial","49","394608","0.0-11.0-14.0","","","","false","","","","","","","","","","433.30000001192093","","212.5999999642372","","2","1","arrowright","1","arrowleft","[0.675,0.325,0.85,0.15]","",""
"sailing-trial","50","397009","0.0-11.0-15.0","","","","false","","","","","","","","","","null","","549.8000000119209","","0","1","null","null","arrowup","[0.675,0.325,0.85,0.15]","",""
"sailing-trial","51","401224","0.0-11.0-16.0","","","","false","","","","","","","","","","1028.5999999642372","","418.30000001192093","","2","1","arrowright","1","arrowleft","[0.675,0.325,0.85,0.15]","",""
"sailing-trial","52","403971","0.0-11.0-17.0","","","","false","","","","","","","","","","null","","799","","1","0","null","null","arrowup","[0.675,0.325,0.85,0.15]","",""
"sailing-trial","53","407299","0.0-11.0-18.0","","","","false","","","","","","","","","","746","","68.69999998807907","","3","0","arrowright","1","arrowright","[0.675,0.325,0.85,0.15]","",""
"sailing-trial","54","410158","0.0-11.0-19.0","","","","false","","","","","","","","","","null","","914.0999999642372","","0","1","null","null","arrowup","[0.675,0.325,0.85,0.15]","",""
"sailing-trial","55","413404","0.0-11.0-20.0","","","","false","","","","","","","","","","433.19999998807907","","162.9000000357628","","0","0","arrowleft","0","arrowleft","[0.675,0.325,0.85,0.15]","",""
"sailing-trial","56","416775","0.0-11.0-21.0","","","","false","","","","","","","","","","null","","1147.5","","0","1","null","null","arrowup","[0.675,0.325,0.85,0.15]","",""
"sailing-trial","57","420649","0.0-11.0-22.0","","","","false","","","","","","","","","","640.1000000238419","","300","","2","0","arrowright","1","arrowleft","[0.325,0.675,0.15,0.85]","",""
"sailing-trial","58","424142","0.0-11.0-23.0","","","","false","","","","","","","","","","null","","1086.300000011921","","1","1","null","null","arrowup","[0.325,0.675,0.15,0.85]","",""
"sailing-trial","59","427861","0.0-11.0-24.0","","","","false","","","","","","","","","","877.3999999761581","","104","","2","0","arrowright","1","arrowleft","[0.325,0.675,0.15,0.85]","",""
"sailing-trial","60","430876","0.0-11.0-25.0","","","","false","","","","","","","","","","null","","821.3999999761581","","3","1","null","null","arrowup","[0.325,0.675,0.15,0.85]","",""
"sailing-trial","61","435058","0.0-11.0-26.0","","","","false","","","","","","","","","","427","","835","","3","1","arrowright","1","arrowright","[0.325,0.675,0.15,0.85]","",""
"sailing-trial","62","437492","0.0-11.0-27.0","","","","false","","","","","","","","","","null","","401","","3","1","null","null","arrowup","[0.325,0.675,0.15,0.85]","",""
"sailing-trial","63","442443","0.0-11.0-28.0","","","","false","","","","","","","","","","1061.2999999523163","","887.2000000476837","","3","1","arrowright","1","arrowright","[0.325,0.675,0.15,0.85]","",""
"sailing-trial","64","446479","0.0-11.0-29.0","","","","false","","","","","","","","","","null","","1040.6000000238419","","2","0","null","null","arrowup","[0.325,0.675,0.15,0.85]","",""
"sailing-trial","65","450676","0.0-11.0-30.0","","","","false","","","","","","","","","","510.60000002384186","","613.1000000238419","","3","1","arrowright","1","arrowright","[0.325,0.675,0.15,0.85]","",""
"sailing-trial","66","453426","0.0-11.0-31.0","","","","false","","","","","","","","","","null","","703.6000000238419","","1","1","null","null","arrowup","[0.325,0.675,0.15,0.85]","",""
"sailing-trial","67","457044","0.0-11.0-32.0","","","","false","","","","","","","","","","908.5","","71.39999997615814","","3","0","arrowright","1","arrowright","[0.325,0.675,0.15,0.85]","",""
"sailing-trial","68","459675","0.0-11.0-33.0","","","","false","","","","","","","","","","null","","650.3999999761581","","3","1","null","null","arrowup","[0.325,0.675,0.15,0.85]","",""
"sailing-trial","69","464458","0.0-11.0-34.0","","","","false","","","","","","","","","","435.69999998807907","","758.8999999761581","","3","1","arrowright","1","arrowright","[0.325,0.675,0.15,0.85]","",""
"sailing-trial","70","466337","0.0-11.0-35.0","","","","false","","","","","","","","","","null","","380.5","","1","0","null","null","arrowup","[0.325,0.675,0.15,0.85]","",""
"sailing-trial","71","471258","0.0-11.0-36.0","","","","false","","","","","","","","","","581.3999999761581","","455.2000000476837","","3","1","arrowright","1","arrowright","[0.325,0.675,0.15,0.85]","",""
"sailing-trial","72","473868","0.0-11.0-37.0","","","","false","","","","","","","","","","null","","784","","0","0","null","null","arrowup","[0.325,0.675,0.15,0.85]","",""
"sailing-trial","73","478491","0.0-11.0-38.0","","","","false","","","","","","","","","","577.5","","602.6999999880791","","3","0","arrowright","1","arrowright","[0.85,0.15,0.675,0.325]","",""
"sailing-trial","74","480313","0.0-11.0-39.0","","","","false","","","","","","","","","","null","","237.19999998807907","","3","0","null","null","arrowup","[0.85,0.15,0.675,0.325]","",""
"sailing-trial","75","484658","0.0-11.0-40.0","","","","false","","","","","","","","","","843","","639.8000000119209","","0","1","arrowleft","0","arrowleft","[0.85,0.15,0.675,0.325]","",""
"sailing-trial","76","488224","0.0-11.0-41.0","","","","false","","","","","","","","","","null","","1234.199999988079","","0","1","null","null","arrowup","[0.85,0.15,0.675,0.325]","",""
"sailing-trial","77","492425","0.0-11.0-42.0","","","","false","","","","","","","","","","449.9000000357628","","601.6000000238419","","0","1","arrowleft","0","arrowleft","[0.85,0.15,0.675,0.325]","",""
"sailing-trial","78","496545","0.0-11.0-43.0","","","","false","","","","","","","","","","null","","1119.9000000357628","","1","0","null","null","arrowup","[0.85,0.15,0.675,0.325]","",""
"sailing-trial","79","500176","0.0-11.0-44.0","","","","false","","","","","","","","","","444.19999998807907","","288.30000001192093","","0","1","arrowleft","0","arrowleft","[0.85,0.15,0.675,0.325]","",""
"sailing-trial","80","502915","0.0-11.0-45.0","","","","false","","","","","","","","","","null","","966.6000000238419","","0","1","null","null","arrowup","[0.85,0.15,0.675,0.325]","",""
"sailing-trial","81","506559","0.0-11.0-46.0","","","","false","","","","","","","","","","449.7000000476837","","312.2000000476837","","0","1","arrowleft","0","arrowleft","[0.85,0.15,0.675,0.325]","",""
"sailing-trial","82","508660","0.0-11.0-47.0","","","","false","","","","","","","","","","null","","290.89999997615814","","0","1","null","null","arrowup","[0.85,0.15,0.675,0.325]","",""
"sailing-trial","83","512643","0.0-11.0-48.0","","","","false","","","","","","","","","","361","","429.5","","0","1","arrowleft","0","arrowleft","[0.85,0.15,0.675,0.325]","",""
"sailing-trial","84","516274","0.0-11.0-49.0","","","","false","","","","","","","","","","null","","91.09999996423721","","3","1","null","null","arrowup","[0.85,0.15,0.675,0.325]","",""
"sailing-trial","85","520676","0.0-11.0-50.0","","","","false","","","","","","","","","","476.89999997615814","","719.5999999642372","","0","1","arrowleft","0","arrowleft","[0.85,0.15,0.675,0.325]","",""
"sailing-trial","86","524361","0.0-11.0-51.0","","","","false","","","","","","","","","","null","","679","","2","0","null","null","arrowup","[0.85,0.15,0.675,0.325]","",""
"sailing-trial","87","528491","0.0-11.0-52.0","","","","false","","","","","","","","","","312.5","","363.89999997615814","","0","1","arrowleft","0","arrowleft","[0.85,0.15,0.675,0.325]","",""
"sailing-trial","88","531277","0.0-11.0-53.0","","","","false","","","","","","","","","","null","","299.10000002384186","","0","1","null","null","arrowup","[0.85,0.15,0.675,0.325]","",""
"sailing-trial","89","535075","0.0-11.0-54.0","","","","false","","","","","","","","","","480.39999997615814","","111.89999997615814","","0","1","arrowleft","0","arrowleft","[0.85,0.15,0.675,0.325]","",""
"sailing-trial","90","537044","0.0-11.0-55.0","","","","false","","","","","","","","","","null","","632.6999999880791","","1","0","null","null","arrowup","[0.85,0.15,0.675,0.325]","",""
"sailing-trial","91","540725","0.0-11.0-56.0","","","","false","","","","","","","","","","567.1999999880791","","450.5","","0","0","arrowleft","0","arrowleft","[0.85,0.15,0.675,0.325]","",""
"sailing-trial","92","543743","0.0-11.0-57.0","","","","false","","","","","","","","","","null","","917.4000000357628","","2","1","null","null","arrowup","[0.85,0.15,0.675,0.325]","",""
"sailing-trial","93","547460","0.0-11.0-58.0","","","","false","","","","","","","","","","349.7999999523163","","430.80000001192093","","0","1","arrowleft","0","arrowleft","[0.85,0.15,0.675,0.325]","",""
"sailing-trial","94","551396","0.0-11.0-59.0","","","","false","","","","","","","","","","null","","940.3000000119209","","1","0","null","null","arrowup","[0.85,0.15,0.675,0.325]","",""
"sailing-trial","95","555392","0.0-11.0-60.0","","","","false","","","","","","","","","","445.60000002384186","","429.60000002384186","","0","1","arrowleft","0","arrowleft","[0.675,0.325,0.85,0.15]","",""
"sailing-trial","96","557806","0.0-11.0-61.0","","","","false","","","","","","","","","","null","","554.5","","0","0","null","null","arrowup","[0.675,0.325,0.85,0.15]","",""
"sailing-trial","97","561559","0.0-11.0-62.0","","","","false","","","","","","","","","","478.10000002384186","","13.300000011920929","","0","1","arrowleft","0","arrowleft","[0.675,0.325,0.85,0.15]","",""
"sailing-trial","98","564987","0.0-11.0-63.0","","","","false","","","","","","","","","","null","","1641.7000000476837","","1","0","null","null","arrowup","[0.675,0.325,0.85,0.15]","",""
"sailing-trial","99","570127","0.0-11.0-64.0","","","","false","","","","","","","","","","1412.3999999761581","","310.69999998807907","","0","1","arrowleft","0","arrowleft","[0.675,0.325,0.85,0.15]","",""
"sailing-trial","100","573059","0.0-11.0-65.0","","","","false","","","","","","","","","","null","","780","","1","1","null","null","arrowup","[0.675,0.325,0.85,0.15]","",""
"sailing-trial","101","577892","0.0-11.0-66.0","","","","false","","","","","","","","","","496.2000000476837","","1.9000000357627869","","0","1","arrowleft","0","arrowleft","[0.675,0.325,0.85,0.15]","",""
"sailing-trial","102","580608","0.0-11.0-67.0","","","","false","","","","","","","","","","null","","389.39999997615814","","2","1","null","null","arrowup","[0.675,0.325,0.85,0.15]","",""
"sailing-trial","103","584908","0.0-11.0-68.0","","","","false","","","","","","","","","","816.1999999880791","","67.69999998807907","","2","1","arrowright","1","arrowleft","[0.675,0.325,0.85,0.15]","",""
"sailing-trial","104","590510","0.0-11.0-69.0","","","","false","","","","","","","","","","null","","1024","","2","1","null","null","arrowup","[0.675,0.325,0.85,0.15]","",""
"sailing-trial","105","594377","0.0-11.0-70.0","","","","false","","","","","","","","","","770.5","","111.19999998807907","","2","1","arrowright","1","arrowleft","[0.675,0.325,0.85,0.15]","",""
"sailing-trial","106","597242","0.0-11.0-71.0","","","","false","","","","","","","","","","null","","648.9000000357628","","2","1","null","null","arrowup","[0.675,0.325,0.85,0.15]","",""
"sailing-trial","107","600742","0.0-11.0-72.0","","","","false","","","","","","","","","","104.30000001192093","","428.80000001192093","","2","1","arrowright","1","arrowleft","[0.675,0.325,0.85,0.15]","",""
"sailing-trial","108","602759","0.0-11.0-73.0","","","","false","","","","","","","","","","null","","835.6000000238419","","2","0","null","null","arrowup","[0.675,0.325,0.85,0.15]","",""
"sailing-trial","109","606659","0.0-11.0-74.0","","","","false","","","","","","","","","","381.19999998807907","","767","","2","1","arrowright","1","arrowleft","[0.675,0.325,0.85,0.15]","",""
"sailing-trial","110","609645","0.0-11.0-75.0","","","","false","","","","","","","","","","null","","1624.8999999761581","","3","0","null","null","arrowup","[0.675,0.325,0.85,0.15]","",""
"sailing-trial","111","613276","0.0-11.0-76.0","","","","false","","","","","","","","","","450.60000002384186","","283.69999998807907","","0","1","arrowleft","0","arrowleft","[0.85,0.15,0.675,0.325]","",""
"sailing-trial","112","616289","0.0-11.0-77.0","","","","false","","","","","","","","","","null","","987.6999999880791","","1","0","null","null","arrowup","[0.85,0.15,0.675,0.325]","",""
"sailing-trial","113","619859","0.0-11.0-78.0","","","","false","","","","","","","","","","511.30000001192093","","148.19999998807907","","0","1","arrowleft","0","arrowleft","[0.85,0.15,0.675,0.325]","",""
"sailing-trial","114","622893","0.0-11.0-79.0","","","","false","","","","","","","","","","null","","866.5999999642372","","2","1","null","null","arrowup","[0.85,0.15,0.675,0.325]","",""
"sailing-trial","115","626710","0.0-11.0-80.0","","","","false","","","","","","","","","","521.3999999761581","","358.60000002384186","","0","1","arrowleft","0","arrowleft","[0.85,0.15,0.675,0.325]","",""
"sailing-trial","116","630562","0.0-11.0-81.0","","","","false","","","","","","","","","","null","","852.4000000357628","","1","0","null","null","arrowup","[0.85,0.15,0.675,0.325]","",""
"sailing-trial","117","634793","0.0-11.0-82.0","","","","false","","","","","","","","","","1030","","412.2999999523163","","0","1","arrowleft","0","arrowleft","[0.85,0.15,0.675,0.325]","",""
"sailing-trial","118","636583","0.0-11.0-83.0","","","","false","","","","","","","","","","null","","437.60000002384186","","0","0","null","null","arrowup","[0.85,0.15,0.675,0.325]","",""
"sailing-trial","119","640435","0.0-11.0-84.0","","","","false","","","","","","","","","","533.9000000357628","","687.1999999880791","","2","0","arrowright","1","arrowleft","[0.85,0.15,0.675,0.325]","",""
"sailing-trial","120","644877","0.0-11.0-85.0","","","","false","","","","","","","","","","null","","1015.8000000119209","","3","1","null","null","arrowup","[0.85,0.15,0.675,0.325]","",""
"sailing-trial","121","648827","0.0-11.0-86.0","","","","false","","","","","","","","","","705.0999999642372","","340.5","","3","1","arrowright","1","arrowright","[0.85,0.15,0.675,0.325]","",""
"sailing-trial","122","652960","0.0-11.0-87.0","","","","false","","","","","","","","","","null","","1787.5","","3","1","null","null","arrowup","[0.85,0.15,0.675,0.325]","",""
"sailing-trial","123","657217","0.0-11.0-88.0","","","","false","","","","","","","","","","722.2999999523163","","370.30000001192093","","3","0","arrowright","1","arrowright","[0.85,0.15,0.675,0.325]","",""
"sailing-trial","124","660760","0.0-11.0-89.0","","","","false","","","","","","","","","","null","","842.8000000119209","","0","1","null","null","arrowup","[0.85,0.15,0.675,0.325]","",""
"sailing-trial","125","664811","0.0-11.0-90.0","","","","false","","","","","","","","","","587.5","","363.39999997615814","","3","0","arrowright","1","arrowright","[0.85,0.15,0.675,0.325]","",""
"sailing-trial","126","667727","0.0-11.0-91.0","","","","false","","","","","","","","","","null","","926.1000000238419","","0","1","null","null","arrowup","[0.85,0.15,0.675,0.325]","",""
"sailing-trial","127","671293","0.0-11.0-92.0","","","","false","","","","","","","","","","488.30000001192093","","293","","0","1","arrowleft","0","arrowleft","[0.85,0.15,0.675,0.325]","",""
"sailing-trial","128","675346","0.0-11.0-93.0","","","","false","","","","","","","","","","null","","1044.9000000357628","","1","0","null","null","arrowup","[0.85,0.15,0.675,0.325]","",""
"sailing-trial","129","679077","0.0-11.0-94.0","","","","false","","","","","","","","","","215.5","","444.60000002384186","","0","1","arrowleft","0","arrowleft","[0.675,0.325,0.85,0.15]","",""
"sailing-trial","130","681910","0.0-11.0-95.0","","","","false","","","","","","","","","","null","","650.7000000476837","","2","1","null","null","arrowup","[0.675,0.325,0.85,0.15]","",""
"sailing-trial","131","685659","0.0-11.0-96.0","","","","false","","","","","","","","","","715.1000000238419","","24.600000023841858","","0","1","arrowleft","0","arrowleft","[0.675,0.325,0.85,0.15]","",""
"sailing-trial","132","688454","0.0-11.0-97.0","","","","false","","","","","","","","","","null","","1355.699999988079","","2","0","null","null","arrowup","[0.675,0.325,0.85,0.15]","",""
"sailing-trial","133","691812","0.0-11.0-98.0","","","","false","","","","","","","","","","662.9000000357628","","473.5","","0","0","arrowleft","0","arrowleft","[0.675,0.325,0.85,0.15]","",""
"sailing-trial","134","694010","0.0-11.0-99.0","","","","false","","","","","","","","","","null","","1144.7000000476837","","2","0","null","null","arrowup","[0.675,0.325,0.85,0.15]","",""
"sailing-trial","135","698571","0.0-11.0-100.0","","","","false","","","","","","","","","","1783.1000000238419","","347.5999999642372","","1","0","arrowleft","0","arrowright","[0.675,0.325,0.85,0.15]","",""
"sailing-trial","136","700725","0.0-11.0-101.0","","","","false","","","","","","","","","","null","","862.5","","3","0","null","null","arrowup","[0.675,0.325,0.85,0.15]","",""
"sailing-trial","137","703946","0.0-11.0-102.0","","","","false","","","","","","","","","","439.4000000357628","","431.30000001192093","","2","0","arrowright","1","arrowleft","[0.675,0.325,0.85,0.15]","",""
"sailing-trial","138","707927","0.0-11.0-103.0","","","","false","","","","","","","","","","null","","1884.8999999761581","","2","1","null","null","arrowup","[0.675,0.325,0.85,0.15]","",""
"sailing-trial","139","711394","0.0-11.0-104.0","","","","false","","","","","","","","","","872.3999999761581","","65.60000002384186","","2","1","arrowright","1","arrowleft","[0.675,0.325,0.85,0.15]","",""
"sailing-trial","140","714533","0.0-11.0-105.0","","","","false","","","","","","","","","","null","","1397.2000000476837","","1","0","null","null","arrowup","[0.675,0.325,0.85,0.15]","",""
"sailing-trial","141","718794","0.0-11.0-106.0","","","","false","","","","","","","","","","562.5","","648.3999999761581","","2","1","arrowright","1","arrowleft","[0.675,0.325,0.85,0.15]","",""
"sailing-trial","142","725230","0.0-11.0-107.0","","","","false","","","","","","","","","","null","","3407.7999999523163","","1","0","null","null","arrowup","[0.675,0.325,0.85,0.15]","",""
"sailing-trial","143","728927","0.0-11.0-108.0","","","","false","","","","","","","","","","746.2000000476837","","335","","2","1","arrowright","1","arrowleft","[0.675,0.325,0.85,0.15]","",""
"sailing-trial","144","731843","0.0-11.0-109.0","","","","false","","","","","","","","","","null","","959.5","","0","1","null","null","arrowup","[0.675,0.325,0.85,0.15]","",""
"sailing-trial","145","735960","0.0-11.0-110.0","","","","false","","","","","","","","","","566.2000000476837","","318.7999999523163","","2","1","arrowright","1","arrowleft","[0.675,0.325,0.85,0.15]","",""
"sailing-trial","146","739323","0.0-11.0-111.0","","","","false","","","","","","","","","","null","","2083.100000023842","","2","0","null","null","arrowup","[0.675,0.325,0.85,0.15]","",""
"sailing-trial","147","742668","0.0-11.0-112.0","","","","false","","","","","","","","","","445.80000001192093","","498.89999997615814","","2","0","arrowright","1","arrowleft","[0.675,0.325,0.85,0.15]","",""
"sailing-trial","148","745033","0.0-11.0-113.0","","","","false","","","","","","","","","","null","","994.3000000119209","","2","0","null","null","arrowup","[0.675,0.325,0.85,0.15]","",""
"sailing-trial","149","748778","0.0-11.0-114.0","","","","false","","","","","","","","","","363.80000001192093","","389.30000001192093","","0","1","arrowleft","0","arrowleft","[0.85,0.15,0.675,0.325]","",""
"sailing-trial","150","751643","0.0-11.0-115.0","","","","false","","","","","","","","","","null","","986.6999999880791","","0","1","null","null","arrowup","[0.85,0.15,0.675,0.325]","",""
"sailing-trial","151","755311","0.0-11.0-116.0","","","","false","","","","","","","","","","547","","464","","0","1","arrowleft","0","arrowleft","[0.85,0.15,0.675,0.325]","",""
"sailing-trial","152","757962","0.0-11.0-117.0","","","","false","","","","","","","","","","null","","453.60000002384186","","2","1","null","null","arrowup","[0.85,0.15,0.675,0.325]","",""
"sailing-trial","153","761610","0.0-11.0-118.0","","","","false","","","","","","","","","","199.30000001192093","","444.80000001192093","","0","1","arrowleft","0","arrowleft","[0.85,0.15,0.675,0.325]","",""
"sailing-trial","154","763945","0.0-11.0-119.0","","","","false","","","","","","","","","","null","","81.09999996423721","","3","1","null","null","arrowup","[0.85,0.15,0.675,0.325]","",""
"sailing-trial","155","767088","0.0-11.0-120.0","","","","false","","","","","","","","","","418.10000002384186","","152.0999999642372","","0","0","arrowleft","0","arrowleft","[0.85,0.15,0.675,0.325]","",""
"sailing-trial","156","769142","0.0-11.0-121.0","","","","false","","","","","","","","","","null","","724.5","","3","0","null","null","arrowup","[0.85,0.15,0.675,0.325]","",""
"sailing-trial","157","773534","0.0-11.0-122.0","","","","false","","","","","","","","","","1314.199999988079","","580.6000000238419","","2","0","arrowright","1","arrowleft","[0.85,0.15,0.675,0.325]","",""
"sailing-trial","158","775879","0.0-11.0-123.0","","","","false","","","","","","","","","","null","","946.5","","0","0","null","null","arrowup","[0.85,0.15,0.675,0.325]","",""
"sailing-trial","159","779289","0.0-11.0-124.0","","","","false","","","","","","","","","","652.9000000357628","","430.5","","3","0","arrowright","1","arrowright","[0.85,0.15,0.675,0.325]","",""
"sailing-trial","160","781792","0.0-11.0-125.0","","","","false","","","","","","","","","","null","","1146","","1","0","null","null","arrowup","[0.85,0.15,0.675,0.325]","",""
"sailing-trial","161","785544","0.0-11.0-126.0","","","","false","","","","","","","","","","521.1000000238419","","490.69999998807907","","3","1","arrowright","1","arrowright","[0.85,0.15,0.675,0.325]","",""
"sailing-trial","162","788181","0.0-11.0-127.0","","","","false","","","","","","","","","","null","","429.19999998807907","","3","0","null","null","arrowup","[0.85,0.15,0.675,0.325]","",""
"sailing-trial","163","792445","0.0-11.0-128.0","","","","false","","","","","","","","","","867.4000000357628","","611.0999999642372","","2","1","arrowright","1","arrowleft","[0.85,0.15,0.675,0.325]","",""
"sailing-trial","164","795612","0.0-11.0-129.0","","","","false","","","","","","","","","","null","","1165.699999988079","","0","1","null","null","arrowup","[0.85,0.15,0.675,0.325]","",""
"sailing-trial","165","799527","0.0-11.0-130.0","","","","false","","","","","","","","","","734.9000000357628","","380.80000001192093","","0","1","arrowleft","0","arrowleft","[0.85,0.15,0.675,0.325]","",""
"sailing-trial","166","802551","0.0-11.0-131.0","","","","false","","","","","","","","","","null","","1490.8999999761581","","3","0","null","null","arrowup","[0.85,0.15,0.675,0.325]","",""
"sailing-trial","167","805849","0.0-11.0-132.0","","","","false","","","","","","","","","","863.5","","306","","1","0","arrowleft","0","arrowright","[0.85,0.15,0.675,0.325]","",""
"sailing-trial","168","808660","0.0-11.0-133.0","","","","false","","","","","","","","","","null","","889.6999999880791","","3","1","null","null","arrowup","[0.85,0.15,0.675,0.325]","",""
"sailing-trial","169","813913","0.0-11.0-134.0","","","","false","","","","","","","","","","619.3999999761581","","636.9000000357628","","3","0","arrowright","1","arrowright","[0.675,0.325,0.85,0.15]","",""
"sailing-trial","170","816812","0.0-11.0-135.0","","","","false","","","","","","","","","","null","","1283.7999999523163","","2","1","null","null","arrowup","[0.675,0.325,0.85,0.15]","",""
"sailing-trial","171","820444","0.0-11.0-136.0","","","","false","","","","","","","","","","555.6999999880791","","393.2000000476837","","2","1","arrowright","1","arrowleft","[0.675,0.325,0.85,0.15]","",""
"sailing-trial","172","823256","0.0-11.0-137.0","","","","false","","","","","","","","","","null","","1100.300000011921","","3","0","null","null","arrowup","[0.675,0.325,0.85,0.15]","",""
"sailing-trial","173","827510","0.0-11.0-138.0","","","","false","","","","","","","","","","736.3999999761581","","490.4000000357628","","2","1","arrowright","1","arrowleft","[0.675,0.325,0.85,0.15]","",""
"sailing-trial","174","833339","0.0-11.0-139.0","","","","false","","","","","","","","","","null","","3400.599999964237","","3","0","null","null","arrowup","[0.675,0.325,0.85,0.15]","",""
"sailing-trial","175","836861","0.0-11.0-140.0","","","","false","","","","","","","","","","6.800000011920929","","507.4000000357628","","0","1","arrowleft","0","arrowleft","[0.675,0.325,0.85,0.15]","",""
"sailing-trial","176","840118","0.0-11.0-141.0","","","","false","","","","","","","","","","null","","1753.7999999523163","","1","0","null","null","arrowup","[0.675,0.325,0.85,0.15]","",""
"sailing-trial","177","844394","0.0-11.0-142.0","","","","false","","","","","","","","","","613.1999999880791","","427.19999998807907","","2","1","arrowright","1","arrowleft","[0.675,0.325,0.85,0.15]","",""
"sailing-trial","178","847412","0.0-11.0-143.0","","","","false","","","","","","","","","","null","","684.1000000238419","","1","1","null","null","arrowup","[0.675,0.325,0.85,0.15]","",""
"sailing-trial","179","851279","0.0-11.0-144.0","","","","false","","","","","","","","","","619.8000000119209","","33.799999952316284","","2","1","arrowright","1","arrowleft","[0.675,0.325,0.85,0.15]","",""
"sailing-trial","180","853355","0.0-11.0-145.0","","","","false","","","","","","","","","","null","","360.9000000357628","","2","0","null","null","arrowup","[0.675,0.325,0.85,0.15]","",""
"sailing-trial","181","857477","0.0-11.0-146.0","","","","false","","","","","","","","","","808.2000000476837","","303.80000001192093","","2","1","arrowright","1","arrowleft","[0.675,0.325,0.85,0.15]","",""
"sailing-trial","182","861680","0.0-11.0-147.0","","","","false","","","","","","","","","","null","","2825.400000035763","","0","0","null","null","arrowup","[0.675,0.325,0.85,0.15]","",""
"sailing-trial","183","865094","0.0-11.0-148.0","","","","false","","","","","","","","","","574.5","","246.80000001192093","","2","1","arrowright","1","arrowleft","[0.675,0.325,0.85,0.15]","",""
"sailing-trial","184","868244","0.0-11.0-149.0","","","","false","","","","","","","","","","null","","1072","","2","1","null","null","arrowup","[0.675,0.325,0.85,0.15]","",""
"sailing-trial","185","872081","0.0-11.0-150.0","","","","false","","","","","","","","","","667.9000000357628","","398.89999997615814","","2","0","arrowright","1","arrowleft","[0.85,0.15,0.675,0.325]","",""
"sailing-trial","186","874729","0.0-11.0-151.0","","","","false","","","","","","","","","","null","","983.1999999880791","","0","1","null","null","arrowup","[0.85,0.15,0.675,0.325]","",""
"sailing-trial","187","879845","0.0-11.0-152.0","","","","false","","","","","","","","","","698.3000000119209","","459","","2","1","arrowright","1","arrowleft","[0.85,0.15,0.675,0.325]","",""
"sailing-trial","188","883296","0.0-11.0-153.0","","","","false","","","","","","","","","","null","","1160.0999999642372","","2","1","null","null","arrowup","[0.85,0.15,0.675,0.325]","",""
"sailing-trial","189","887537","0.0-11.0-154.0","","","","false","","","","","","","","","","1215.3999999761581","","394.10000002384186","","1","0","arrowleft","0","arrowright","[0.85,0.15,0.675,0.325]","",""
"sailing-trial","190","890512","0.0-11.0-155.0","","","","false","","","","","","","","","","null","","1198.699999988079","","3","1","null","null","arrowup","[0.85,0.15,0.675,0.325]","",""
"sailing-trial","191","893708","0.0-11.0-156.0","","","","false","","","","","","","","","","33.19999998807907","","285.19999998807907","","2","0","arrowright","1","arrowleft","[0.85,0.15,0.675,0.325]","",""
"sailing-trial","192","896362","0.0-11.0-157.0","","","","false","","","","","","","","","","null","","981.3999999761581","","1","0","null","null","arrowup","[0.85,0.15,0.675,0.325]","",""
"sailing-trial","193","899296","0.0-11.0-158.0","","","","false","","","","","","","","","","509.7000000476837","","101.80000001192093","","3","0","arrowright","1","arrowright","[0.85,0.15,0.675,0.325]","",""
"sailing-trial","194","901868","0.0-11.0-159.0","","","","false","","","","","","","","","","null","","1288.300000011921","","3","0","null","null","arrowup","[0.85,0.15,0.675,0.325]","",""
"sailing-trial","195","905444","0.0-11.0-160.0","","","","false","","","","","","","","","","420.69999998807907","","140.30000001192093","","0","1","arrowleft","0","arrowleft","[0.85,0.15,0.675,0.325]","",""
"sailing-trial","196","908911","0.0-11.0-161.0","","","","false","","","","","","","","","","null","","1593.8999999761581","","0","1","null","null","arrowup","[0.85,0.15,0.675,0.325]","",""
"sailing-trial","197","913296","0.0-11.0-162.0","","","","false","","","","","","","","","","411.69999998807907","","573.3999999761581","","0","1","arrowleft","0","arrowleft","[0.85,0.15,0.675,0.325]","",""
"sailing-trial","198","915579","0.0-11.0-163.0","","","","false","","","","","","","","","","null","","225","","2","1","null","null","arrowup","[0.85,0.15,0.675,0.325]","",""
"sailing-trial","199","920545","0.0-11.0-164.0","","","","false","","","","","","","","","","311.60000002384186","","258.5","","0","1","arrowleft","0","arrowleft","[0.85,0.15,0.675,0.325]","",""
"sailing-trial","200","924129","0.0-11.0-165.0","","","","false","","","","","","","","","","null","","1740.3999999761581","","2","1","null","null","arrowup","[0.85,0.15,0.675,0.325]","",""
"sailing-trial","201","928512","0.0-11.0-166.0","","","","false","","","","","","","","","","935.8000000119209","","349.0999999642372","","0","1","arrowleft","0","arrowleft","[0.85,0.15,0.675,0.325]","",""
"sailing-trial","202","932077","0.0-11.0-167.0","","","","false","","","","","","","","","","null","","1712.4000000357628","","0","1","null","null","arrowup","[0.85,0.15,0.675,0.325]","",""
"sailing-trial","203","937595","0.0-11.0-168.0","","","","false","","","","","","","","","","827.7999999523163","","170.9000000357628","","0","1","arrowleft","0","arrowleft","[0.85,0.15,0.675,0.325]","",""
"sailing-trial","204","939691","0.0-11.0-169.0","","","","false","","","","","","","","","","null","","406.7000000476837","","1","0","null","null","arrowup","[0.85,0.15,0.675,0.325]","",""
"sailing-trial","205","944195","0.0-11.0-170.0","","","","false","","","","","","","","","","219.39999997615814","","263.69999998807907","","0","1","arrowleft","0","arrowleft","[0.85,0.15,0.675,0.325]","",""
"sailing-trial","206","947209","0.0-11.0-171.0","","","","false","","","","","","","","","","null","","1767.3999999761581","","2","0","null","null","arrowup","[0.85,0.15,0.675,0.325]","",""
"sailing-trial","207","951513","0.0-11.0-172.0","","","","false","","","","","","","","","","488.89999997615814","","517.2000000476837","","0","1","arrowleft","0","arrowleft","[0.85,0.15,0.675,0.325]","",""
"sailing-trial","208","954779","0.0-11.0-173.0","","","","false","","","","","","","","","","null","","1491.3999999761581","","2","1","null","null","arrowup","[0.85,0.15,0.675,0.325]","",""
"sailing-trial","209","960744","0.0-11.0-174.0","","","","false","","","","","","","","","","2116.699999988079","","154.80000001192093","","0","1","arrowleft","0","arrowleft","[0.325,0.675,0.15,0.85]","",""
"sailing-trial","210","965496","0.0-11.0-175.0","","","","false","","","","","","","","","","null","","2763.100000023842","","1","1","null","null","arrowup","[0.325,0.675,0.15,0.85]","",""
"sailing-trial","211","968512","0.0-11.0-176.0","","","","false","","","","","","","","","","587","","288.19999998807907","","0","0","arrowleft","0","arrowleft","[0.325,0.675,0.15,0.85]","",""
"sailing-trial","212","970517","0.0-11.0-177.0","","","","false","","","","","","","","","","null","","702","","2","0","null","null","arrowup","[0.325,0.675,0.15,0.85]","",""
"sailing-trial","213","974528","0.0-11.0-178.0","","","","false","","","","","","","","","","1268.699999988079","","104.30000001192093","","1","1","arrowleft","0","arrowright","[0.325,0.675,0.15,0.85]","",""
"sailing-trial","214","976604","0.0-11.0-179.0","","","","false","","","","","","","","","","null","","943.9000000357628","","1","0","null","null","arrowup","[0.325,0.675,0.15,0.85]","",""
"sailing-trial","215","979727","0.0-11.0-180.0","","","","false","","","","","","","","","","106.5","","65.89999997615814","","3","1","arrowright","1","arrowright","[0.325,0.675,0.15,0.85]","",""
"sailing-trial","216","982980","0.0-11.0-181.0","","","","false","","","","","","","","","","null","","931.1000000238419","","3","1","null","null","arrowup","[0.325,0.675,0.15,0.85]","",""
"sailing-trial","217","986345","0.0-11.0-182.0","","","","false","","","","","","","","","","401.80000001192093","","110.10000002384186","","3","1","arrowright","1","arrowright","[0.325,0.675,0.15,0.85]","",""
"sailing-trial","218","989196","0.0-11.0-183.0","","","","false","","","","","","","","","","null","","867.6000000238419","","1","1","null","null","arrowup","[0.325,0.675,0.15,0.85]","",""
"sailing-trial","219","993213","0.0-11.0-184.0","","","","false","","","","","","","","","","222.70000004768372","","123.5","","3","1","arrowright","1","arrowright","[0.325,0.675,0.15,0.85]","",""
"sailing-trial","220","996297","0.0-11.0-185.0","","","","false","","","","","","","","","","null","","1004.8000000119209","","0","1","null","null","arrowup","[0.325,0.675,0.15,0.85]","",""
"sailing-trial","221","999682","0.0-11.0-186.0","","","","false","","","","","","","","","","152.39999997615814","","633.5","","3","0","arrowright","1","arrowright","[0.325,0.675,0.15,0.85]","",""
"sailing-trial","222","1003479","0.0-11.0-187.0","","","","false","","","","","","","","","","null","","1770.5","","3","1","null","null","arrowup","[0.325,0.675,0.15,0.85]","",""
"sailing-trial","223","1009580","0.0-11.0-188.0","","","","false","","","","","","","","","","1320.199999988079","","1142.5","","3","1","arrowright","1","arrowright","[0.325,0.675,0.15,0.85]","",""
"sailing-trial","224","1011865","0.0-11.0-189.0","","","","false","","","","","","","","","","null","","908.6999999880791","","0","0","null","null","arrowup","[0.325,0.675,0.15,0.85]","",""
"sailing-trial","225","1016546","0.0-11.0-190.0","","","","false","","","","","","","","","","478.5999999642372","","1390.5999999642372","","3","1","arrowright","1","arrowright","[0.15,0.85,0.325,0.675]","",""
"sailing-trial","226","1019572","0.0-11.0-191.0","","","","false","","","","","","","","","","null","","918.9000000357628","","2","0","null","null","arrowup","[0.15,0.85,0.325,0.675]","",""
"sailing-trial","227","1023747","0.0-11.0-192.0","","","","false","","","","","","","","","","593.1999999880791","","690.6999999880791","","3","1","arrowright","1","arrowright","[0.15,0.85,0.325,0.675]","",""
"sailing-trial","228","1026230","0.0-11.0-193.0","","","","false","","","","","","","","","","null","","694.6999999880791","","2","0","null","null","arrowup","[0.15,0.85,0.325,0.675]","",""
"sailing-trial","229","1029546","0.0-11.0-194.0","","","","false","","","","","","","","","","654.2999999523163","","11.100000023841858","","3","1","arrowright","1","arrowright","[0.15,0.85,0.325,0.675]","",""
"sailing-trial","230","1034614","0.0-11.0-195.0","","","","false","","","","","","","","","","null","","2675.5","","1","1","null","null","arrowup","[0.15,0.85,0.325,0.675]","",""
"sailing-trial","231","1038130","0.0-11.0-196.0","","","","false","","","","","","","","","","570.8999999761581","","152","","3","1","arrowright","1","arrowright","[0.15,0.85,0.325,0.675]","",""
"sailing-trial","232","1041696","0.0-11.0-197.0","","","","false","","","","","","","","","","null","","1064.1000000238419","","3","1","null","null","arrowup","[0.15,0.85,0.325,0.675]","",""
"sailing-trial","233","1045014","0.0-11.0-198.0","","","","false","","","","","","","","","","263","","307.0999999642372","","3","1","arrowright","1","arrowright","[0.15,0.85,0.325,0.675]","",""
"sailing-trial","234","1050113","0.0-11.0-199.0","","","","false","","","","","","","","","","null","","2945.599999964237","","3","1","null","null","arrowup","[0.15,0.85,0.325,0.675]","",""
"sailing-trial","235","1054428","0.0-11.0-200.0","","","","false","","","","","","","","","","864","","1017.6999999880791","","2","0","arrowright","1","arrowleft","[0.15,0.85,0.325,0.675]","",""
"sailing-trial","236","1057197","0.0-11.0-201.0","","","","false","","","","","","","","","","null","","896.3000000119209","","1","1","null","null","arrowup","[0.15,0.85,0.325,0.675]","",""
"sailing-trial","237","1061464","0.0-11.0-202.0","","","","false","","","","","","","","","","1048.800000011921","","141.39999997615814","","3","1","arrowright","1","arrowright","[0.15,0.85,0.325,0.675]","",""
"sailing-trial","238","1065484","0.0-11.0-203.0","","","","false","","","","","","","","","","null","","1014.3000000119209","","0","0","null","null","arrowup","[0.15,0.85,0.325,0.675]","",""
"sailing-trial","239","1070230","0.0-11.0-204.0","","","","false","","","","","","","","","","1054.3999999761581","","475.39999997615814","","3","1","arrowright","1","arrowright","[0.15,0.85,0.325,0.675]","",""
"sailing-trial","240","1076063","0.0-11.0-205.0","","","","false","","","","","","","","","","null","","1613.3999999761581","","3","1","null","null","arrowup","[0.15,0.85,0.325,0.675]","",""
"sailing-trial","241","1081398","0.0-11.0-206.0","","","","false","","","","","","","","","","928.5999999642372","","386.5","","2","0","arrowright","1","arrowleft","[0.15,0.85,0.325,0.675]","",""
"sailing-trial","242","1084606","0.0-11.0-207.0","","","","false","","","","","","","","","","null","","1266.300000011921","","2","0","null","null","arrowup","[0.15,0.85,0.325,0.675]","",""
"sailing-trial","243","1087873","0.0-11.0-208.0","","","","false","","","","","","","","","","715.8999999761581","","184.5","","0","0","arrowleft","0","arrowleft","[0.15,0.85,0.325,0.675]","",""
"sailing-trial","244","1090530","0.0-11.0-209.0","","","","false","","","","","","","","","","null","","1075.5","","1","1","null","null","arrowup","[0.15,0.85,0.325,0.675]","",""
"sailing-trial","245","1093913","0.0-11.0-210.0","","","","false","","","","","","","","","","143.60000002384186","","474.9000000357628","","3","1","arrowright","1","arrowright","[0.325,0.675,0.15,0.85]","",""
"sailing-trial","246","1096547","0.0-11.0-211.0","","","","false","","","","","","","","","","null","","1109","","0","1","null","null","arrowup","[0.325,0.675,0.15,0.85]","",""
"sailing-trial","247","1099980","0.0-11.0-212.0","","","","false","","","","","","","","","","344.19999998807907","","131.70000004768372","","3","1","arrowright","1","arrowright","[0.325,0.675,0.15,0.85]","",""
"sailing-trial","248","1102441","0.0-11.0-213.0","","","","false","","","","","","","","","","null","","1024.699999988079","","1","0","null","null","arrowup","[0.325,0.675,0.15,0.85]","",""
"sailing-trial","249","1105930","0.0-11.0-214.0","","","","false","","","","","","","","","","516.8999999761581","","200","","3","1","arrowright","1","arrowright","[0.325,0.675,0.15,0.85]","",""
"sailing-trial","250","1108913","0.0-11.0-215.0","","","","false","","","","","","","","","","null","","1364.800000011921","","3","1","null","null","arrowup","[0.325,0.675,0.15,0.85]","",""
"sailing-trial","251","1112531","0.0-11.0-216.0","","","","false","","","","","","","","","","214.19999998807907","","150.39999997615814","","3","1","arrowright","1","arrowright","[0.325,0.675,0.15,0.85]","",""
"sailing-trial","252","1116013","0.0-11.0-217.0","","","","false","","","","","","","","","","null","","1468.5","","3","1","null","null","arrowup","[0.325,0.675,0.15,0.85]","",""
"sailing-trial","253","1118254","0.0-11.0-218.0","","","","false","","","","","","","","","","16.399999976158142","","90.39999997615814","","3","0","arrowright","1","arrowright","[0.325,0.675,0.15,0.85]","",""
"sailing-trial","254","1121624","0.0-11.0-219.0","","","","false","","","","","","","","","","null","","2265.5","","0","0","null","null","arrowup","[0.325,0.675,0.15,0.85]","",""
"sailing-trial","255","1125047","0.0-11.0-220.0","","","","false","","","","","","","","","","475.10000002384186","","134.69999998807907","","3","1","arrowright","1","arrowright","[0.325,0.675,0.15,0.85]","",""
"sailing-trial","256","1129465","0.0-11.0-221.0","","","","false","","","","","","","","","","null","","1421.5","","0","0","null","null","arrowup","[0.325,0.675,0.15,0.85]","",""
"sailing-trial","257","1133480","0.0-11.0-222.0","","","","false","","","","","","","","","","193.60000002384186","","590.8000000119209","","3","1","arrowright","1","arrowright","[0.325,0.675,0.15,0.85]","",""
"sailing-trial","258","1136853","0.0-11.0-223.0","","","","false","","","","","","","","","","null","","1499.0999999642372","","2","0","null","null","arrowup","[0.325,0.675,0.15,0.85]","",""
"sailing-trial","259","1140814","0.0-11.0-224.0","","","","false","","","","","","","","","","721.8000000119209","","477.30000001192093","","3","1","arrowright","1","arrowright","[0.325,0.675,0.15,0.85]","",""
"sailing-trial","260","1143628","0.0-11.0-225.0","","","","false","","","","","","","","","","null","","1037.3999999761581","","3","1","null","null","arrowup","[0.325,0.675,0.15,0.85]","",""
"sailing-trial","261","1147747","0.0-11.0-226.0","","","","false","","","","","","","","","","34.69999998807907","","1009","","3","1","arrowright","1","arrowright","[0.15,0.85,0.325,0.675]","",""
"sailing-trial","262","1151030","0.0-11.0-227.0","","","","false","","","","","","","","","","null","","1119.0999999642372","","1","1","null","null","arrowup","[0.15,0.85,0.325,0.675]","",""
"sailing-trial","263","1154629","0.0-11.0-228.0","","","","false","","","","","","","","","","424","","335.5","","3","1","arrowright","1","arrowright","[0.15,0.85,0.325,0.675]","",""
"sailing-trial","264","1157930","0.0-11.0-229.0","","","","false","","","","","","","","","","null","","890.1000000238419","","1","1","null","null","arrowup","[0.15,0.85,0.325,0.675]","",""
"sailing-trial","265","1163397","0.0-11.0-230.0","","","","false","","","","","","","","","","134.30000001192093","","2420.300000011921","","3","1","arrowright","1","arrowright","[0.15,0.85,0.325,0.675]","",""
"sailing-trial","266","1166780","0.0-11.0-231.0","","","","false","","","","","","","","","","null","","1262.6000000238419","","1","1","null","null","arrowup","[0.15,0.85,0.325,0.675]","",""
"sailing-trial","267","1172247","0.0-11.0-232.0","","","","false","","","","","","","","","","246.60000002384186","","232.4000000357628","","3","1","arrowright","1","arrowright","[0.15,0.85,0.325,0.675]","",""
"sailing-trial","268","1175416","0.0-11.0-233.0","","","","false","","","","","","","","","","null","","157.5","","1","0","null","null","arrowup","[0.15,0.85,0.325,0.675]","",""
"sailing-trial","269","1178663","0.0-11.0-234.0","","","","false","","","","","","","","","","170.39999997615814","","209","","3","1","arrowright","1","arrowright","[0.15,0.85,0.325,0.675]","",""
"sailing-trial","270","1188414","0.0-11.0-235.0","","","","false","","","","","","","","","","null","","7193.699999988079","","3","1","null","null","arrowup","[0.15,0.85,0.325,0.675]","",""
"sailing-trial","271","1194246","0.0-11.0-236.0","","","","false","","","","","","","","","","789.1999999880791","","477.39999997615814","","3","1","arrowright","1","arrowright","[0.15,0.85,0.325,0.675]","",""
"sailing-trial","272","1209253","0.0-11.0-237.0","","","","true","","","","","","","","","","null","","null","","null","null","null","null","null","[0.15,0.85,0.325,0.675]","",""
"sailing-trial","273","1224259","0.0-11.0-238.0","","","","true","","","","","","","","","","null","","null","","null","null","null","null","null","[0.15,0.85,0.325,0.675]","",""
"sailing-trial","274","1239264","0.0-11.0-239.0","","","","true","","","","","","","","","","null","","null","","null","null","null","null","null","[0.15,0.85,0.325,0.675]","",""
"sailing-trial","275","1254272","0.0-11.0-240.0","","","","true","","","","","","","","","","null","","null","","null","null","null","null","null","[0.15,0.85,0.325,0.675]","",""
"sailing-trial","276","1269280","0.0-11.0-241.0","","","","true","","","","","","","","","","null","","null","","null","null","null","null","null","[0.15,0.85,0.325,0.675]","",""
"sailing-trial","277","1274198","0.0-11.0-242.0","","","","false","","","","","","","","","","1327","","408.5","","3","1","arrowright","1","arrowright","[0.325,0.675,0.15,0.85]","",""
"sailing-trial","278","1278648","0.0-11.0-243.0","","","","false","","","","","","","","","","null","","1842.8999999761581","","1","1","null","null","arrowup","[0.325,0.675,0.15,0.85]","",""
"sailing-trial","279","1281982","0.0-11.0-244.0","","","","false","","","","","","","","","","623.3000000119209","","170.5","","3","1","arrowright","1","arrowright","[0.325,0.675,0.15,0.85]","",""
"sailing-trial","280","1283976","0.0-11.0-245.0","","","","false","","","","","","","","","","null","","877.2999999523163","","2","0","null","null","arrowup","[0.325,0.675,0.15,0.85]","",""
"sailing-trial","281","1287247","0.0-11.0-246.0","","","","false","","","","","","","","","","296.39999997615814","","211.20000004768372","","3","1","arrowright","1","arrowright","[0.325,0.675,0.15,0.85]","",""
"sailing-trial","282","1289715","0.0-11.0-247.0","","","","false","","","","","","","","","","null","","863.5999999642372","","0","1","null","null","arrowup","[0.325,0.675,0.15,0.85]","",""
"sailing-trial","283","1293282","0.0-11.0-248.0","","","","false","","","","","","","","","","218.5","","318.69999998807907","","3","1","arrowright","1","arrowright","[0.325,0.675,0.15,0.85]","",""
"sailing-trial","284","1304548","0.0-11.0-249.0","","","","false","","","","","","","","","","null","","8679","","3","1","null","null","arrowup","[0.325,0.675,0.15,0.85]","",""
"sailing-trial","285","1308464","0.0-11.0-250.0","","","","false","","","","","","","","","","619.5","","381.2000000476837","","1","1","arrowleft","0","arrowright","[0.325,0.675,0.15,0.85]","",""
"sailing-trial","286","1312601","0.0-11.0-251.0","","","","false","","","","","","","","","","null","","1137.699999988079","","2","0","null","null","arrowup","[0.325,0.675,0.15,0.85]","",""
"sailing-trial","287","1316931","0.0-11.0-252.0","","","","false","","","","","","","","","","369.10000002384186","","97.89999997615814","","3","1","arrowright","1","arrowright","[0.325,0.675,0.15,0.85]","",""
"sailing-trial","288","1319947","0.0-11.0-253.0","","","","false","","","","","","","","","","null","","1320","","1","1","null","null","arrowup","[0.325,0.675,0.15,0.85]","",""
"sailing-trial","289","1323815","0.0-11.0-254.0","","","","false","","","","","","","","","","476.0999999642372","","484.10000002384186","","3","1","arrowright","1","arrowright","[0.325,0.675,0.15,0.85]","",""
"sailing-trial","290","1326549","0.0-11.0-255.0","","","","false","","","","","","","","","","null","","1165.800000011921","","1","0","null","null","arrowup","[0.325,0.675,0.15,0.85]","",""
"sailing-trial","291","1330588","0.0-11.0-256.0","","","","false","","","","","","","","","","578.4000000357628","","186.4000000357628","","3","0","arrowright","1","arrowright","[0.325,0.675,0.15,0.85]","",""
"sailing-trial","292","1340065","0.0-11.0-257.0","","","","false","","","","","","","","","","null","","7384.399999976158","","1","1","null","null","arrowup","[0.325,0.675,0.15,0.85]","",""
"sailing-trial","293","1343899","0.0-11.0-258.0","","","","false","","","","","","","","","","866.1000000238419","","84.19999998807907","","3","1","arrowright","1","arrowright","[0.325,0.675,0.15,0.85]","",""
"sailing-trial","294","1352966","0.0-11.0-259.0","","","","false","","","","","","","","","","null","","6041.900000035763","","0","0","null","null","arrowup","[0.325,0.675,0.15,0.85]","",""
"sailing-trial","295","1357755","0.0-11.0-260.0","","","","false","","","","","","","","","","963.1999999880791","","489.80000001192093","","2","0","arrowright","1","arrowleft","[0.15,0.85,0.325,0.675]","",""
"sailing-trial","296","1361302","0.0-11.0-261.0","","","","false","","","","","","","","","","null","","533.5","","0","0","null","null","arrowup","[0.15,0.85,0.325,0.675]","",""
"sailing-trial","297","1371098","0.0-11.0-262.0","","","","false","","","","","","","","","","4614.399999976158","","765.8000000119209","","3","1","arrowright","1","arrowright","[0.15,0.85,0.325,0.675]","",""
"sailing-trial","298","1373832","0.0-11.0-263.0","","","","false","","","","","","","","","","null","","1018.1999999880791","","0","1","null","null","arrowup","[0.15,0.85,0.325,0.675]","",""
"sailing-trial","299","1383131","0.0-11.0-264.0","","","","false","","","","","","","","","","6013.399999976158","","499.0999999642372","","3","1","arrowright","1","arrowright","[0.15,0.85,0.325,0.675]","",""
"sailing-trial","300","1388049","0.0-11.0-265.0","","","","false","","","","","","","","","","null","","1080.5999999642372","","2","1","null","null","arrowup","[0.15,0.85,0.325,0.675]","",""
"sailing-trial","301","1405958","0.0-11.0-266.0","","","","true","","","","","","","","","","1056.8999999761581","","856.8000000119209","","3","1","arrowright","1","arrowright","[0.15,0.85,0.325,0.675]","",""
"sailing-trial","302","1420965","0.0-11.0-267.0","","","","true","","","","","","","","","","null","","null","","null","null","null","null","null","[0.15,0.85,0.325,0.675]","",""
"sailing-trial","303","1435973","0.0-11.0-268.0","","","","true","","","","","","","","","","null","","null","","null","null","null","null","null","[0.15,0.85,0.325,0.675]","",""
"sailing-trial","304","1450980","0.0-11.0-269.0","","","","true","","","","","","","","","","null","","null","","null","null","null","null","null","[0.15,0.85,0.325,0.675]","",""
"sailing-trial","305","1465988","0.0-11.0-270.0","","","","true","","","","","","","","","","null","","null","","null","null","null","null","null","[0.15,0.85,0.325,0.675]","",""
"sailing-trial","306","1480996","0.0-11.0-271.0","","","","true","","","","[{""event"":""fullscreenenter"",""trial"":3,""time"":4001},{""event"":""blur"",""trial"":307,""time"":1854532},{""event"":""focus"",""trial"":307,""time"":1854536},{""event"":""fullscreenexit"",""trial"":307,""time"":1854549}]","false","","","","","null","","null","","null","null","null","null","null","[0.15,0.85,0.325,0.675]","",""
