"trial_type","trial_index","time_elapsed","internal_node_id","value","metadata","success","timeout","failed_images","failed_audio","failed_video","browser_interaction","low_quality","rt","stimulus","response","button_pressed","island_rt","island_response","boat_rt","boat_response","boat","reward","island_key","island","boat_key","reward_probabilities","responses","num_errors","view_history"
"pavlovia","0","3","0.0-0.0","","","","","","","","","","","","","","","","","","","","","","","","","",""
"call-function","1","3","0.0-1.0","","{""task_version"":""sr_pilot_v2"",""task_condition"":""good"",""boats"":[""C"",""B"",""A"",""D""],""boats_demo"":[""G"",""F"",""E"",""H""],""islands"":[""B"",""A""],""subject_id"":""13957"",""age"":""18"",""gender"":""Male""}","","","","","","","","","","","","","","","","","","","","","","","",""
"preload","2","1978","0.0-2.0","","","true","false","[]","[]","[]","[{""event"":""fullscreenenter"",""trial"":3,""time"":5629}]","false","","","","","","","","","","","","","","","","",""
"fullscreen","3","6618","0.0-3.0","","","true","","","","","","","","","","","","","","","","","","","","","","",""
"audio-keyboard-response","4","7848","0.0-4.0-0.0","","","","","","","","","","1226.6666666666674","audio/beep_loop.wav"," ","","","","","","","","","","","","","",""
"audio-test","5","10565","0.0-4.0-1.0","","","","","","","","","","null","audio/turtle.mp3","","3","","","","","","","","","","","","",""
"audio-test","6","12681","0.0-4.0-2.0","","","","","","","","","","null","audio/shark.mp3","","2","","","","","","","","","","","","",""
"sailing-instructions","7","42529","0.0-5.0-0.0-0.0","","","","","","","","","","","","","","null","null","null","null","null","null","","","","","","",""
"sailing-trial","8","46878","0.0-5.0-0.0-1.0-0.0","","","","false","","","","","","","","","","3241.900000002235","","null","","null","null","arrowleft","0","null","null","","",""
"sailing-trial","9","49660","0.0-5.0-0.0-1.0-1.0","","","","false","","","","","","","","","","1662.800000000745","","null","","null","null","arrowright","1","null","null","","",""
"sailing-trial","10","52326","0.0-5.0-0.0-1.0-2.0","","","","false","","","","","","","","","","1530.9000000022352","","null","","null","null","arrowright","1","null","null","","",""
"sailing-instructions","11","92468","0.0-5.0-0.0-2.0","","","","","","","","","","","","","","null","null","null","null","0","null","","","","","","",""
"sailing-trial","12","97678","0.0-5.0-0.0-3.0-0.0","","","","false","","","","","","","","","","null","","1714.699999999255","","2","1","null","null","arrowleft","[1,1,1,1]","","",""
"sailing-trial","13","102628","0.0-5.0-0.0-3.0-1.0","","","","false","","","","","","","","","","null","","1651.4000000022352","","3","1","null","null","arrowright","[1,1,1,1]","","",""
"sailing-trial","14","109058","0.0-5.0-0.0-3.0-2.0","","","","false","","","","","","","","","","null","","3663","","2","0","null","null","arrowleft","[0,0,0,0]","","",""
"sailing-instructions","15","116376","0.0-5.0-0.0-4.0","","","","","","","","","","","","","","null","null","null","null","null","null","","","","","","",""
"sailing-comprehension","16","134773","0.0-5.0-0.0-5.0","","","","","","","","","","16754.300000000745","","","","","","","","","","","","","","[""true"",""true"",""false"",""true""]","0",""
"sailing-instructions","17","194749","0.0-6.0-0.0-0.0","","","","","","","","","","","","","","null","null","null","null","null","null","","","","","","",""
"sailing-comprehension","18","205983","0.0-6.0-0.0-1.0","","","","","","","","","","10363.5","","","","","","","","","","","","","","[""true"",""false"",""true""]","0",""
"sailing-instructions","19","219861","0.0-7.0-0.0-0.0","","","","","","","","","","","","","","null","null","null","null","null","null","","","","","","",""
"sailing-trial","20","225041","0.0-7.0-0.0-1.0-0.0","","","","false","","","","","","","","","","null","","2622.10000000149","","0","1","null","null","arrowup","[0.2,0.8,0.2,0.8]","","",""
"sailing-trial","21","229189","0.0-7.0-0.0-1.0-1.0","","","","false","","","","","","","","","","null","","1867.199999999255","","1","1","null","null","arrowup","[0.2,0.8,0.2,0.8]","","",""
"sailing-trial","22","232091","0.0-7.0-0.0-1.0-2.0","","","","false","","","","","","","","","","null","","1018.7000000029802","","2","0","null","null","arrowup","[0.2,0.8,0.2,0.8]","","",""
"sailing-trial","23","235090","0.0-7.0-0.0-1.0-3.0","","","","false","","","","","","","","","","null","","1110.300000000745","","3","1","null","null","arrowup","[0.2,0.8,0.2,0.8]","","",""
"sailing-comprehension","24","241180","0.0-7.0-0.0-2.0","","","","","","","","","","5377.89999999851","","","","","","","","","","","","","","[""false""]","0",""
"sailing-instructions","25","273073","0.0-8.0-0.0-0.0","","","","","","","","","","","","","","null","null","null","null","null","null","","","","","","",""
"sailing-comprehension","26","276300","0.0-8.0-0.0-1.0","","","","","","","","","","2343.300000000745","","","","","","","","","","","","","","[""true""]","0",""
"sailing-instructions","27","321647","0.0-9.0-0.0-0.0","","","","","","","","","","","","","","null","null","null","null","null","null","","","","","","",""
"sailing-trial","28","328222","0.0-9.0-0.0-1.0-0.0","","","","false","","","","","","","","","","1742.199999999255","","975.7000000029802","","3","1","arrowright","1","arrowright","[0.2,0.8,0.2,0.8]","","",""
"sailing-trial","29","332773","0.0-9.0-0.0-1.0-1.0","","","","false","","","","","","","","","","721.6000000014901","","559.3000000007451","","3","1","arrowright","1","arrowright","[0.2,0.8,0.2,0.8]","","",""
"sailing-trial","30","336372","0.0-9.0-0.0-1.0-2.0","","","","false","","","","","","","","","","null","","1265.6000000014901","","0","0","null","null","arrowup","[0.2,0.8,0.2,0.8]","","",""
"sailing-trial","31","340889","0.0-9.0-0.0-1.0-3.0","","","","false","","","","","","","","","","1020.4000000022352","","500.80000000074506","","3","1","arrowright","1","arrowright","[0.2,0.8,0.2,0.8]","","",""
"sailing-trial","32","344322","0.0-9.0-0.0-1.0-4.0","","","","false","","","","","","","","","","null","","1373.800000000745","","3","1","null","null","arrowup","[0.2,0.8,0.2,0.8]","","",""
"sailing-trial","33","348554","0.0-9.0-0.0-1.0-5.0","","","","false","","","","","","","","","","810.5999999977648","","502.4000000022352","","3","0","arrowright","1","arrowright","[0.2,0.8,0.2,0.8]","","",""
"sailing-instructions","34","372932","0.0-10.0","","","","","","","","","","","","","","null","null","null","null","null","null","","","","","","",""
"sailing-trial","35","379205","0.0-11.0-0.0","","","","false","","","","","","","","","","1820.3999999985099","","362.1000000014901","","3","0","arrowright","1","arrowright","[0.325,0.675,0.85,0.15]","","",""
"sailing-trial","36","382869","0.0-11.0-1.0","","","","false","","","","","","","","","","null","","1283.5","","1","1","null","null","arrowup","[0.325,0.675,0.85,0.15]","","",""
"sailing-trial","37","388520","0.0-11.0-2.0","","","","false","","","","","","","","","","853.0999999977648","","738.2999999970198","","3","0","arrowright","1","arrowright","[0.325,0.675,0.85,0.15]","","",""
"sailing-trial","38","391438","0.0-11.0-3.0","","","","false","","","","","","","","","","null","","649.3000000007451","","1","1","null","null","arrowup","[0.325,0.675,0.85,0.15]","","",""
"sailing-trial","39","395619","0.0-11.0-4.0","","","","false","","","","","","","","","","713.6999999992549","","7.800000000745058","","2","1","arrowright","1","arrowleft","[0.325,0.675,0.85,0.15]","","",""
"sailing-trial","40","399571","0.0-11.0-5.0","","","","false","","","","","","","","","","null","","902.1999999992549","","3","0","null","null","arrowup","[0.325,0.675,0.85,0.15]","","",""
"sailing-trial","41","403771","0.0-11.0-6.0","","","","false","","","","","","","","","","656","","517.3000000007451","","2","1","arrowright","1","arrowleft","[0.325,0.675,0.85,0.15]","","",""
"sailing-trial","42","406774","0.0-11.0-7.0","","","","false","","","","","","","","","","null","","875.8000000007451","","2","1","null","null","arrowup","[0.325,0.675,0.85,0.15]","","",""
"sailing-trial","43","410422","0.0-11.0-8.0","","","","false","","","","","","","","","","701.8999999985099","","130.89999999850988","","2","1","arrowright","1","arrowleft","[0.325,0.675,0.85,0.15]","","",""
"sailing-trial","44","415123","0.0-11.0-9.0","","","","false","","","","","","","","","","null","","1689.8999999985099","","0","0","null","null","arrowup","[0.325,0.675,0.85,0.15]","","",""
"sailing-trial","45","419455","0.0-11.0-10.0","","","","false","","","","","","","","","","783.8000000007451","","699.5","","2","1","arrowright","1","arrowleft","[0.325,0.675,0.85,0.15]","","",""
"sailing-trial","46","422772","0.0-11.0-11.0","","","","false","","","","","","","","","","null","","1229.5","","1","1","null","null","arrowup","[0.325,0.675,0.85,0.15]","","",""
"sailing-trial","47","426740","0.0-11.0-12.0","","","","false","","","","","","","","","","518.8999999985099","","349.30000000074506","","2","1","arrowright","1","arrowleft","[0.325,0.675,0.85,0.15]","","",""
"sailing-trial","48","430733","0.0-11.0-13.0","","","","false","","","","","","","","","","null","","976.3000000007451","","1","0","null","null","arrowup","[0.325,0.675,0.85,0.15]","","",""
"sailing-trial","49","434637","0.0-11.0-14.0","","","","false","","","","","","","","","","496.5","","405.80000000074506","","2","1","arrowright","1","arrowleft","[0.325,0.675,0.85,0.15]","","",""
"sailing-trial","50","437938","0.0-11.0-15.0","","","","false","","","","","","","","","","null","","1157.9000000022352","","0","1","null","null","arrowup","[0.325,0.675,0.85,0.15]","","",""
"sailing-trial","51","441993","0.0-11.0-16.0","","","","false","","","","","","","","","","622.6999999992549","","257.0999999977648","","2","0","arrowright","1","arrowleft","[0.325,0.675,0.85,0.15]","","",""
"sailing-trial","52","444798","0.0-11.0-17.0","","","","false","","","","","","","","","","null","","811.5","","3","0","null","null","arrowup","[0.325,0.675,0.85,0.15]","","",""
"sailing-trial","53","448479","0.0-11.0-18.0","","","","false","","","","","","","","","","547","","37.5","","2","0","arrowright","1","arrowleft","[0.85,0.15,0.325,0.675]","","",""
"sailing-trial","54","452088","0.0-11.0-19.0","","","","false","","","","","","","","","","null","","2220.599999997765","","3","0","null","null","arrowup","[0.85,0.15,0.325,0.675]","","",""
"sailing-trial","55","457299","0.0-11.0-20.0","","","","false","","","","","","","","","","573","","1910.7000000029802","","0","0","arrowleft","0","arrowleft","[0.85,0.15,0.325,0.675]","","",""
"sailing-trial","56","460303","0.0-11.0-21.0","","","","false","","","","","","","","","","null","","996","","2","1","null","null","arrowup","[0.85,0.15,0.325,0.675]","","",""
"sailing-trial","57","465034","0.0-11.0-22.0","","","","false","","","","","","","","","","463.19999999925494","","738.6000000014901","","1","0","arrowleft","0","arrowright","[0.85,0.15,0.325,0.675]","","",""
"sailing-trial","58","467786","0.0-11.0-23.0","","","","false","","","","","","","","","","null","","919.8999999985099","","0","1","null","null","arrowup","[0.85,0.15,0.325,0.675]","","",""
"sailing-trial","59","471006","0.0-11.0-24.0","","","","false","","","","","","","","","","333.1000000014901","","361.3999999985099","","2","0","arrowright","1","arrowleft","[0.85,0.15,0.325,0.675]","","",""
"sailing-trial","60","473856","0.0-11.0-25.0","","","","false","","","","","","","","","","null","","1038.1000000014901","","2","0","null","null","arrowup","[0.85,0.15,0.325,0.675]","","",""
"sailing-trial","61","478288","0.0-11.0-26.0","","","","false","","","","","","","","","","937.4000000022352","","549.0999999977648","","3","1","arrowright","1","arrowright","[0.85,0.15,0.325,0.675]","","",""
"sailing-trial","62","481003","0.0-11.0-27.0","","","","false","","","","","","","","","","null","","976.5","","3","1","null","null","arrowup","[0.85,0.15,0.325,0.675]","","",""
"sailing-trial","63","484673","0.0-11.0-28.0","","","","false","","","","","","","","","","525.1999999992549","","604.0999999977648","","3","0","arrowright","1","arrowright","[0.85,0.15,0.325,0.675]","","",""
"sailing-trial","64","487062","0.0-11.0-29.0","","","","false","","","","","","","","","","null","","965.5999999977648","","3","0","null","null","arrowup","[0.85,0.15,0.325,0.675]","","",""
"sailing-trial","65","491114","0.0-11.0-30.0","","","","false","","","","","","","","","","406.6000000014901","","1026.800000000745","","1","0","arrowleft","0","arrowright","[0.85,0.15,0.325,0.675]","","",""
"sailing-trial","66","493768","0.0-11.0-31.0","","","","false","","","","","","","","","","null","","788.0999999977648","","3","1","null","null","arrowup","[0.85,0.15,0.325,0.675]","","",""
"sailing-trial","67","497586","0.0-11.0-32.0","","","","false","","","","","","","","","","488.70000000298023","","277.5","","0","1","arrowleft","0","arrowleft","[0.85,0.15,0.325,0.675]","","",""
"sailing-trial","68","500269","0.0-11.0-33.0","","","","false","","","","","","","","","","null","","900.4000000022352","","0","1","null","null","arrowup","[0.85,0.15,0.325,0.675]","","",""
"sailing-trial","69","503585","0.0-11.0-34.0","","","","false","","","","","","","","","","546.5999999977648","","31.199999999254942","","0","1","arrowleft","0","arrowleft","[0.675,0.325,0.15,0.85]","","",""
"sailing-trial","70","506280","0.0-11.0-35.0","","","","false","","","","","","","","","","null","","1161.3999999985099","","2","0","null","null","arrowup","[0.675,0.325,0.15,0.85]","","",""
"sailing-trial","71","510169","0.0-11.0-36.0","","","","false","","","","","","","","","","471.30000000074506","","618","","0","1","arrowleft","0","arrowleft","[0.675,0.325,0.15,0.85]","","",""
"sailing-trial","72","513169","0.0-11.0-37.0","","","","false","","","","","","","","","","null","","1140.3999999985099","","1","1","null","null","arrowup","[0.675,0.325,0.15,0.85]","","",""
"sailing-trial","73","516445","0.0-11.0-38.0","","","","false","","","","","","","","","","405.19999999925494","","230.30000000074506","","0","0","arrowleft","0","arrowleft","[0.675,0.325,0.15,0.85]","","",""
"sailing-trial","74","519219","0.0-11.0-39.0","","","","false","","","","","","","","","","null","","881.5","","0","1","null","null","arrowup","[0.675,0.325,0.15,0.85]","","",""
"sailing-trial","75","522836","0.0-11.0-40.0","","","","false","","","","","","","","","","392","","361.9000000022352","","0","1","arrowleft","0","arrowleft","[0.675,0.325,0.15,0.85]","","",""
"sailing-trial","76","525803","0.0-11.0-41.0","","","","false","","","","","","","","","","null","","944.0999999977648","","0","1","null","null","arrowup","[0.675,0.325,0.15,0.85]","","",""
"sailing-trial","77","529334","0.0-11.0-42.0","","","","false","","","","","","","","","","587.1999999992549","","58.79999999701977","","0","1","arrowleft","0","arrowleft","[0.675,0.325,0.15,0.85]","","",""
"sailing-trial","78","532101","0.0-11.0-43.0","","","","false","","","","","","","","","","null","","896.1000000014901","","3","1","null","null","arrowup","[0.675,0.325,0.15,0.85]","","",""
"sailing-trial","79","535751","0.0-11.0-44.0","","","","false","","","","","","","","","","515","","357.6000000014901","","0","1","arrowleft","0","arrowleft","[0.675,0.325,0.15,0.85]","","",""
"sailing-trial","80","538060","0.0-11.0-45.0","","","","false","","","","","","","","","","null","","809.6000000014901","","2","0","null","null","arrowup","[0.675,0.325,0.15,0.85]","","",""
"sailing-trial","81","542001","0.0-11.0-46.0","","","","false","","","","","","","","","","504.30000000074506","","581.9000000022352","","0","1","arrowleft","0","arrowleft","[0.675,0.325,0.15,0.85]","","",""
"sailing-trial","82","544159","0.0-11.0-47.0","","","","false","","","","","","","","","","null","","876.3999999985099","","0","0","null","null","arrowup","[0.675,0.325,0.15,0.85]","","",""
"sailing-trial","83","548103","0.0-11.0-48.0","","","","false","","","","","","","","","","570.5999999977648","","425.5999999977648","","0","1","arrowleft","0","arrowleft","[0.675,0.325,0.15,0.85]","","",""
"sailing-trial","84","550034","0.0-11.0-49.0","","","","false","","","","","","","","","","null","","692","","2","0","null","null","arrowup","[0.675,0.325,0.15,0.85]","","",""
"sailing-trial","85","553182","0.0-11.0-50.0","","","","false","","","","","","","","","","369.3999999985099","","330.1000000014901","","0","0","arrowleft","0","arrowleft","[0.675,0.325,0.15,0.85]","","",""
"sailing-trial","86","557102","0.0-11.0-51.0","","","","false","","","","","","","","","","null","","2110","","3","1","null","null","arrowup","[0.675,0.325,0.15,0.85]","","",""
"sailing-trial","87","560487","0.0-11.0-52.0","","","","false","","","","","","","","","","370.5","","240.79999999701977","","3","1","arrowright","1","arrowright","[0.675,0.325,0.15,0.85]","","",""
"sailing-trial","88","563152","0.0-11.0-53.0","","","","false","","","","","","","","","","null","","943","","0","1","null","null","arrowup","[0.675,0.325,0.15,0.85]","","",""
"sailing-trial","89","566835","0.0-11.0-54.0","","","","false","","","","","","","","","","520.4000000022352","","247","","3","1","arrowright","1","arrowright","[0.675,0.325,0.15,0.85]","","",""
"sailing-trial","90","569717","0.0-11.0-55.0","","","","false","","","","","","","","","","null","","934.6999999992549","","0","1","null","null","arrowup","[0.675,0.325,0.15,0.85]","","",""
"sailing-trial","91","574752","0.0-11.0-56.0","","","","false","","","","","","","","","","467.80000000074506","","1683.1000000014901","","3","1","arrowright","1","arrowright","[0.85,0.15,0.325,0.675]","","",""
"sailing-trial","92","577014","0.0-11.0-57.0","","","","false","","","","","","","","","","null","","881.1999999992549","","2","0","null","null","arrowup","[0.85,0.15,0.325,0.675]","","",""
"sailing-trial","93","580917","0.0-11.0-58.0","","","","false","","","","","","","","","","449.4000000022352","","420.80000000074506","","3","1","arrowright","1","arrowright","[0.85,0.15,0.325,0.675]","","",""
"sailing-trial","94","584034","0.0-11.0-59.0","","","","false","","","","","","","","","","null","","1327.2000000029802","","0","1","null","null","arrowup","[0.85,0.15,0.325,0.675]","","",""
"sailing-trial","95","587433","0.0-11.0-60.0","","","","false","","","","","","","","","","553.9000000022352","","59.19999999925494","","3","1","arrowright","1","arrowright","[0.85,0.15,0.325,0.675]","","",""
"sailing-trial","96","589901","0.0-11.0-61.0","","","","false","","","","","","","","","","null","","665.8000000007451","","2","1","null","null","arrowup","[0.85,0.15,0.325,0.675]","","",""
"sailing-trial","97","593783","0.0-11.0-62.0","","","","false","","","","","","","","","","538","","501.19999999925494","","3","1","arrowright","1","arrowright","[0.85,0.15,0.325,0.675]","","",""
"sailing-trial","98","596333","0.0-11.0-63.0","","","","false","","","","","","","","","","null","","714","","0","1","null","null","arrowup","[0.85,0.15,0.325,0.675]","","",""
"sailing-trial","99","600100","0.0-11.0-64.0","","","","false","","","","","","","","","","506.3999999985099","","389.9000000022352","","3","1","arrowright","1","arrowright","[0.85,0.15,0.325,0.675]","","",""
"sailing-trial","100","603101","0.0-11.0-65.0","","","","false","","","","","","","","","","null","","1662.800000000745","","1","0","null","null","arrowup","[0.85,0.15,0.325,0.675]","","",""
"sailing-trial","101","607450","0.0-11.0-66.0","","","","false","","","","","","","","","","547","","932","","3","1","arrowright","1","arrowright","[0.85,0.15,0.325,0.675]","","",""
"sailing-trial","102","610357","0.0-11.0-67.0","","","","false","","","","","","","","","","null","","899.5","","3","0","null","null","arrowup","[0.85,0.15,0.325,0.675]","","",""
"sailing-trial","103","614318","0.0-11.0-68.0","","","","false","","","","","","","","","","611.8000000007451","","441.80000000074506","","3","1","arrowright","1","arrowright","[0.85,0.15,0.325,0.675]","","",""
"sailing-trial","104","617016","0.0-11.0-69.0","","","","false","","","","","","","","","","null","","954.5999999977648","","2","1","null","null","arrowup","[0.85,0.15,0.325,0.675]","","",""
"sailing-trial","105","620651","0.0-11.0-70.0","","","","false","","","","","","","","","","140.5","","650.8000000007451","","3","1","arrowright","1","arrowright","[0.85,0.15,0.325,0.675]","","",""
"sailing-trial","106","623766","0.0-11.0-71.0","","","","false","","","","","","","","","","null","","1294","","0","1","null","null","arrowup","[0.85,0.15,0.325,0.675]","","",""
"sailing-trial","107","627034","0.0-11.0-72.0","","","","false","","","","","","","","","","105.5","","354.4000000022352","","3","1","arrowright","1","arrowright","[0.85,0.15,0.325,0.675]","","",""
"sailing-trial","108","629867","0.0-11.0-73.0","","","","false","","","","","","","","","","null","","1103.9000000022352","","3","1","null","null","arrowup","[0.85,0.15,0.325,0.675]","","",""
"sailing-trial","109","632934","0.0-11.0-74.0","","","","false","","","","","","","","","","28.900000002235174","","304.5","","3","1","arrowright","1","arrowright","[0.675,0.325,0.15,0.85]","","",""
"sailing-trial","110","635368","0.0-11.0-75.0","","","","false","","","","","","","","","","null","","656.1000000014901","","3","1","null","null","arrowup","[0.675,0.325,0.15,0.85]","","",""
"sailing-trial","111","639307","0.0-11.0-76.0","","","","false","","","","","","","","","","1105.1000000014901","","27.199999999254942","","3","0","arrowright","1","arrowright","[0.675,0.325,0.15,0.85]","","",""
"sailing-trial","112","642115","0.0-11.0-77.0","","","","false","","","","","","","","","","null","","964.3000000007451","","3","1","null","null","arrowup","[0.675,0.325,0.15,0.85]","","",""
"sailing-trial","113","645500","0.0-11.0-78.0","","","","false","","","","","","","","","","440.1000000014901","","33.19999999925494","","3","1","arrowright","1","arrowright","[0.675,0.325,0.15,0.85]","","",""
"sailing-trial","114","647309","0.0-11.0-79.0","","","","false","","","","","","","","","","null","","601.8000000007451","","2","0","null","null","arrowup","[0.675,0.325,0.15,0.85]","","",""
"sailing-trial","115","651282","0.0-11.0-80.0","","","","false","","","","","","","","","","497.5999999977648","","573.5","","3","1","arrowright","1","arrowright","[0.675,0.325,0.15,0.85]","","",""
"sailing-trial","116","653766","0.0-11.0-81.0","","","","false","","","","","","","","","","null","","801.6999999992549","","0","1","null","null","arrowup","[0.675,0.325,0.15,0.85]","","",""
"sailing-trial","117","657484","0.0-11.0-82.0","","","","false","","","","","","","","","","699.5","","242.69999999925494","","3","1","arrowright","1","arrowright","[0.675,0.325,0.15,0.85]","","",""
"sailing-trial","118","659567","0.0-11.0-83.0","","","","false","","","","","","","","","","null","","991.8000000007451","","1","0","null","null","arrowup","[0.675,0.325,0.15,0.85]","","",""
"sailing-trial","119","664148","0.0-11.0-84.0","","","","false","","","","","","","","","","494","","341.5","","3","1","arrowright","1","arrowright","[0.675,0.325,0.15,0.85]","","",""
"sailing-trial","120","667300","0.0-11.0-85.0","","","","false","","","","","","","","","","null","","1199.699999999255","","3","1","null","null","arrowup","[0.675,0.325,0.15,0.85]","","",""
"sailing-trial","121","671632","0.0-11.0-86.0","","","","false","","","","","","","","","","548.0999999977648","","978.1999999992549","","3","1","arrowright","1","arrowright","[0.675,0.325,0.15,0.85]","","",""
"sailing-trial","122","674583","0.0-11.0-87.0","","","","false","","","","","","","","","","null","","1182","","0","1","null","null","arrowup","[0.675,0.325,0.15,0.85]","","",""
"sailing-trial","123","678732","0.0-11.0-88.0","","","","false","","","","","","","","","","530.5","","728.3000000007451","","3","1","arrowright","1","arrowright","[0.675,0.325,0.15,0.85]","","",""
"sailing-trial","124","680962","0.0-11.0-89.0","","","","false","","","","","","","","","","null","","1023.2000000029802","","1","0","null","null","arrowup","[0.675,0.325,0.15,0.85]","","",""
"sailing-trial","125","684333","0.0-11.0-90.0","","","","false","","","","","","","","","","429.80000000074506","","119.19999999925494","","3","1","arrowright","1","arrowright","[0.675,0.325,0.15,0.85]","","",""
"sailing-trial","126","686397","0.0-11.0-91.0","","","","false","","","","","","","","","","null","","851.1000000014901","","1","0","null","null","arrowup","[0.675,0.325,0.15,0.85]","","",""
"sailing-trial","127","690450","0.0-11.0-92.0","","","","false","","","","","","","","","","463.0999999977648","","687.1000000014901","","3","1","arrowright","1","arrowright","[0.325,0.675,0.85,0.15]","","",""
"sailing-trial","128","693044","0.0-11.0-93.0","","","","false","","","","","","","","","","null","","944.5999999977648","","2","0","null","null","arrowup","[0.325,0.675,0.85,0.15]","","",""
"sailing-trial","129","697381","0.0-11.0-94.0","","","","false","","","","","","","","","","1186.3999999985099","","493.6000000014901","","3","0","arrowright","1","arrowright","[0.325,0.675,0.85,0.15]","","",""
"sailing-trial","130","700150","0.0-11.0-95.0","","","","false","","","","","","","","","","null","","897.9000000022352","","3","1","null","null","arrowup","[0.325,0.675,0.85,0.15]","","",""
"sailing-trial","131","703411","0.0-11.0-96.0","","","","false","","","","","","","","","","428.1000000014901","","309.30000000074506","","3","0","arrowright","1","arrowright","[0.325,0.675,0.85,0.15]","","",""
"sailing-trial","132","706266","0.0-11.0-97.0","","","","false","","","","","","","","","","null","","1076","","0","1","null","null","arrowup","[0.325,0.675,0.85,0.15]","","",""
"sailing-trial","133","709259","0.0-11.0-98.0","","","","false","","","","","","","","","","387.3999999985099","","318.5","","0","0","arrowleft","0","arrowleft","[0.325,0.675,0.85,0.15]","","",""
"sailing-trial","134","711900","0.0-11.0-99.0","","","","false","","","","","","","","","","null","","871.5","","2","1","null","null","arrowup","[0.325,0.675,0.85,0.15]","","",""
"sailing-trial","135","715416","0.0-11.0-100.0","","","","false","","","","","","","","","","502.5999999977648","","203.10000000149012","","2","1","arrowright","1","arrowleft","[0.325,0.675,0.85,0.15]","","",""
"sailing-trial","136","717562","0.0-11.0-101.0","","","","false","","","","","","","","","","null","","802.8999999985099","","0","0","null","null","arrowup","[0.325,0.675,0.85,0.15]","","",""
"sailing-trial","137","720949","0.0-11.0-102.0","","","","false","","","","","","","","","","469.6000000014901","","161.5","","2","1","arrowright","1","arrowleft","[0.325,0.675,0.85,0.15]","","",""
"sailing-trial","138","723664","0.0-11.0-103.0","","","","false","","","","","","","","","","null","","882.8999999985099","","1","1","null","null","arrowup","[0.325,0.675,0.85,0.15]","","",""
"sailing-trial","139","727147","0.0-11.0-104.0","","","","false","","","","","","","","","","470.29999999701977","","165.90000000223517","","2","1","arrowright","1","arrowleft","[0.325,0.675,0.85,0.15]","","",""
"sailing-trial","140","729056","0.0-11.0-105.0","","","","false","","","","","","","","","","null","","715.1999999992549","","0","0","null","null","arrowup","[0.325,0.675,0.85,0.15]","","",""
"sailing-trial","141","732399","0.0-11.0-106.0","","","","false","","","","","","","","","","446.8999999985099","","115.40000000223517","","2","1","arrowright","1","arrowleft","[0.325,0.675,0.85,0.15]","","",""
"sailing-trial","142","735081","0.0-11.0-107.0","","","","false","","","","","","","","","","null","","941.9000000022352","","3","1","null","null","arrowup","[0.325,0.675,0.85,0.15]","","",""
"sailing-trial","143","738414","0.0-11.0-108.0","","","","false","","","","","","","","","","456.80000000074506","","94.30000000074506","","2","1","arrowright","1","arrowleft","[0.15,0.85,0.675,0.325]","","",""
"sailing-trial","144","740981","0.0-11.0-109.0","","","","false","","","","","","","","","","null","","854.7000000029802","","2","1","null","null","arrowup","[0.15,0.85,0.675,0.325]","","",""
"sailing-trial","145","744782","0.0-11.0-110.0","","","","false","","","","","","","","","","487.5","","534.6999999992549","","2","1","arrowright","1","arrowleft","[0.15,0.85,0.675,0.325]","","",""
"sailing-trial","146","747265","0.0-11.0-111.0","","","","false","","","","","","","","","","null","","757","","2","1","null","null","arrowup","[0.15,0.85,0.675,0.325]","","",""
"sailing-trial","147","750617","0.0-11.0-112.0","","","","false","","","","","","","","","","553.2000000029802","","434.3999999985099","","2","0","arrowright","1","arrowleft","[0.15,0.85,0.675,0.325]","","",""
"sailing-trial","148","753820","0.0-11.0-113.0","","","","false","","","","","","","","","","null","","895","","3","0","null","null","arrowup","[0.15,0.85,0.675,0.325]","","",""
"sailing-trial","149","757848","0.0-11.0-114.0","","","","false","","","","","","","","","","943.8000000007451","","201.5","","2","1","arrowright","1","arrowleft","[0.15,0.85,0.675,0.325]","","",""
"sailing-trial","150","760023","0.0-11.0-115.0","","","","false","","","","","","","","","","null","","840.8000000007451","","2","0","null","null","arrowup","[0.15,0.85,0.675,0.325]","","",""
"sailing-trial","151","763258","0.0-11.0-116.0","","","","false","","","","","","","","","","453.6000000014901","","306.69999999925494","","0","0","arrowleft","0","arrowleft","[0.15,0.85,0.675,0.325]","","",""
"sailing-trial","152","765481","0.0-11.0-117.0","","","","false","","","","","","","","","","null","","596.9000000022352","","1","1","null","null","arrowup","[0.15,0.85,0.675,0.325]","","",""
"sailing-trial","153","769063","0.0-11.0-118.0","","","","false","","","","","","","","","","359.1000000014901","","348.80000000074506","","1","1","arrowleft","0","arrowright","[0.15,0.85,0.675,0.325]","","",""
"sailing-trial","154","771465","0.0-11.0-119.0","","","","false","","","","","","","","","","null","","694.3999999985099","","2","1","null","null","arrowup","[0.15,0.85,0.675,0.325]","","",""
"sailing-trial","155","774691","0.0-11.0-120.0","","","","false","","","","","","","","","","452.30000000074506","","244.80000000074506","","1","0","arrowleft","0","arrowright","[0.15,0.85,0.675,0.325]","","",""
"sailing-trial","156","777364","0.0-11.0-121.0","","","","false","","","","","","","","","","null","","888.3000000007451","","1","1","null","null","arrowup","[0.15,0.85,0.675,0.325]","","",""
"sailing-trial","157","780914","0.0-11.0-122.0","","","","false","","","","","","","","","","531.8999999985099","","6.300000000745058","","1","1","arrowleft","0","arrowright","[0.15,0.85,0.675,0.325]","","",""
"sailing-trial","158","783413","0.0-11.0-123.0","","","","false","","","","","","","","","","null","","723.5","","2","1","null","null","arrowup","[0.15,0.85,0.675,0.325]","","",""
"sailing-trial","159","786880","0.0-11.0-124.0","","","","false","","","","","","","","","","561.8999999985099","","81.5","","1","1","arrowleft","0","arrowright","[0.325,0.675,0.85,0.15]","","",""
"sailing-trial","160","790148","0.0-11.0-125.0","","","","false","","","","","","","","","","null","","1509.800000000745","","1","1","null","null","arrowup","[0.325,0.675,0.85,0.15]","","",""
"sailing-trial","161","793863","0.0-11.0-126.0","","","","false","","","","","","","","","","938.8999999985099","","68.09999999776483","","1","1","arrowleft","0","arrowright","[0.325,0.675,0.85,0.15]","","",""
"sailing-trial","162","795791","0.0-11.0-127.0","","","","false","","","","","","","","","","null","","727","","0","0","null","null","arrowup","[0.325,0.675,0.85,0.15]","","",""
"sailing-trial","163","799880","0.0-11.0-128.0","","","","false","","","","","","","","","","401.69999999925494","","786.6000000014901","","1","1","arrowleft","0","arrowright","[0.325,0.675,0.85,0.15]","","",""
"sailing-trial","164","802296","0.0-11.0-129.0","","","","false","","","","","","","","","","null","","579.1999999992549","","2","1","null","null","arrowup","[0.325,0.675,0.85,0.15]","","",""
"sailing-trial","165","805921","0.0-11.0-130.0","","","","false","","","","","","","","","","509.30000000074506","","862.0999999977648","","1","0","arrowleft","0","arrowright","[0.325,0.675,0.85,0.15]","","",""
"sailing-trial","166","807887","0.0-11.0-131.0","","","","false","","","","","","","","","","null","","798","","1","0","null","null","arrowup","[0.325,0.675,0.85,0.15]","","",""
"sailing-trial","167","811246","0.0-11.0-132.0","","","","false","","","","","","","","","","430.9000000022352","","166.39999999850988","","2","1","arrowright","1","arrowleft","[0.325,0.675,0.85,0.15]","","",""
"sailing-trial","168","813630","0.0-11.0-133.0","","","","false","","","","","","","","","","null","","701.9000000022352","","1","1","null","null","arrowup","[0.325,0.675,0.85,0.15]","","",""
"sailing-trial","169","817296","0.0-11.0-134.0","","","","false","","","","","","","","","","489.30000000074506","","388.30000000074506","","2","1","arrowright","1","arrowleft","[0.325,0.675,0.85,0.15]","","",""
"sailing-trial","170","819419","0.0-11.0-135.0","","","","false","","","","","","","","","","null","","836.6999999992549","","0","0","null","null","arrowup","[0.325,0.675,0.85,0.15]","","",""
"sailing-trial","171","822453","0.0-11.0-136.0","","","","false","","","","","","","","","","562.1999999992549","","261.5999999977648","","2","0","arrowright","1","arrowleft","[0.325,0.675,0.85,0.15]","","",""
"sailing-trial","172","824653","0.0-11.0-137.0","","","","false","","","","","","","","","","null","","941.2000000029802","","3","0","null","null","arrowup","[0.325,0.675,0.85,0.15]","","",""
"sailing-trial","173","828140","0.0-11.0-138.0","","","","false","","","","","","","","","","776","","360.8999999985099","","3","0","arrowright","1","arrowright","[0.325,0.675,0.85,0.15]","","",""
"sailing-trial","174","830412","0.0-11.0-139.0","","","","false","","","","","","","","","","null","","740.3000000007451","","2","1","null","null","arrowup","[0.325,0.675,0.85,0.15]","","",""
"sailing-trial","175","833447","0.0-11.0-140.0","","","","false","","","","","","","","","","277.4000000022352","","174.39999999850988","","2","1","arrowright","1","arrowleft","[0.325,0.675,0.85,0.15]","","",""
"sailing-trial","176","835520","0.0-11.0-141.0","","","","false","","","","","","","","","","null","","823.6999999992549","","3","0","null","null","arrowup","[0.325,0.675,0.85,0.15]","","",""
"sailing-trial","177","838580","0.0-11.0-142.0","","","","false","","","","","","","","","","417.20000000298023","","111.60000000149012","","2","1","arrowright","1","arrowleft","[0.325,0.675,0.85,0.15]","","",""
"sailing-trial","178","840716","0.0-11.0-143.0","","","","false","","","","","","","","","","null","","913.9000000022352","","3","0","null","null","arrowup","[0.325,0.675,0.85,0.15]","","",""
"sailing-trial","179","843499","0.0-11.0-144.0","","","","false","","","","","","","","","","437.5999999977648","","110.70000000298023","","2","0","arrowright","1","arrowleft","[0.15,0.85,0.675,0.325]","","",""
"sailing-trial","180","845838","0.0-11.0-145.0","","","","false","","","","","","","","","","null","","1064.3999999985099","","3","0","null","null","arrowup","[0.15,0.85,0.675,0.325]","","",""
"sailing-trial","181","849363","0.0-11.0-146.0","","","","false","","","","","","","","","","466.80000000074506","","227.5","","2","1","arrowright","1","arrowleft","[0.15,0.85,0.675,0.325]","","",""
"sailing-trial","182","852097","0.0-11.0-147.0","","","","false","","","","","","","","","","null","","915.1999999992549","","2","1","null","null","arrowup","[0.15,0.85,0.675,0.325]","","",""
"sailing-trial","183","855495","0.0-11.0-148.0","","","","false","","","","","","","","","","500.0999999977648","","174.30000000074506","","2","1","arrowright","1","arrowleft","[0.15,0.85,0.675,0.325]","","",""
"sailing-trial","184","858212","0.0-11.0-149.0","","","","false","","","","","","","","","","null","","939.8000000007451","","1","1","null","null","arrowup","[0.15,0.85,0.675,0.325]","","",""
"sailing-trial","185","862662","0.0-11.0-150.0","","","","false","","","","","","","","","","918.3000000007451","","756.0999999977648","","2","1","arrowright","1","arrowleft","[0.15,0.85,0.675,0.325]","","",""
"sailing-trial","186","865077","0.0-11.0-151.0","","","","false","","","","","","","","","","null","","960.0999999977648","","0","0","null","null","arrowup","[0.15,0.85,0.675,0.325]","","",""
"sailing-trial","187","868511","0.0-11.0-152.0","","","","false","","","","","","","","","","533.5","","190.40000000223517","","2","1","arrowright","1","arrowleft","[0.15,0.85,0.675,0.325]","","",""
"sailing-trial","188","870463","0.0-11.0-153.0","","","","false","","","","","","","","","","null","","754.9000000022352","","0","0","null","null","arrowup","[0.15,0.85,0.675,0.325]","","",""
"sailing-trial","189","873861","0.0-11.0-154.0","","","","false","","","","","","","","","","534.5","","49.899999998509884","","2","1","arrowright","1","arrowleft","[0.15,0.85,0.675,0.325]","","",""
"sailing-trial","190","876511","0.0-11.0-155.0","","","","false","","","","","","","","","","null","","801.6000000014901","","1","1","null","null","arrowup","[0.15,0.85,0.675,0.325]","","",""
"sailing-trial","191","879878","0.0-11.0-156.0","","","","false","","","","","","","","","","379.8999999985099","","323.1000000014901","","2","1","arrowright","1","arrowleft","[0.15,0.85,0.675,0.325]","","",""
"sailing-trial","192","881885","0.0-11.0-157.0","","","","false","","","","","","","","","","null","","791.8999999985099","","3","0","null","null","arrowup","[0.15,0.85,0.675,0.325]","","",""
"sailing-trial","193","885044","0.0-11.0-158.0","","","","false","","","","","","","","","","383.4000000022352","","89.80000000074506","","2","1","arrowright","1","arrowleft","[0.15,0.85,0.675,0.325]","","",""
"sailing-trial","194","887512","0.0-11.0-159.0","","","","false","","","","","","","","","","null","","924.8999999985099","","1","1","null","null","arrowup","[0.15,0.85,0.675,0.325]","","",""
"sailing-trial","195","889956","0.0-11.0-160.0","","","","false","","","","","","","","","","357.1000000014901","","18.200000002980232","","2","0","arrowright","1","arrowleft","[0.85,0.15,0.325,0.675]","","",""
"sailing-trial","196","891926","0.0-11.0-161.0","","","","false","","","","","","","","","","null","","720.3999999985099","","1","0","null","null","arrowup","[0.85,0.15,0.325,0.675]","","",""
"sailing-trial","197","895736","0.0-11.0-162.0","","","","false","","","","","","","","","","1284.8999999985099","","115.19999999925494","","2","0","arrowright","1","arrowleft","[0.85,0.15,0.325,0.675]","","",""
"sailing-trial","198","897514","0.0-11.0-163.0","","","","false","","","","","","","","","","null","","601.8999999985099","","1","0","null","null","arrowup","[0.85,0.15,0.325,0.675]","","",""
"sailing-trial","199","900681","0.0-11.0-164.0","","","","false","","","","","","","","","","511.5","","396.5","","0","0","arrowleft","0","arrowleft","[0.85,0.15,0.325,0.675]","","",""
"sailing-trial","200","902633","0.0-11.0-165.0","","","","false","","","","","","","","","","null","","757.5999999977648","","2","0","null","null","arrowup","[0.85,0.15,0.325,0.675]","","",""
"sailing-trial","201","906179","0.0-11.0-166.0","","","","false","","","","","","","","","","512.5","","130.89999999850988","","3","1","arrowright","1","arrowright","[0.85,0.15,0.325,0.675]","","",""
"sailing-trial","202","908132","0.0-11.0-167.0","","","","false","","","","","","","","","","null","","726.6999999992549","","1","0","null","null","arrowup","[0.85,0.15,0.325,0.675]","","",""
"sailing-trial","203","911511","0.0-11.0-168.0","","","","false","","","","","","","","","","548.8999999985099","","76.10000000149012","","3","1","arrowright","1","arrowright","[0.85,0.15,0.325,0.675]","","",""
"sailing-trial","204","913843","0.0-11.0-169.0","","","","false","","","","","","","","","","null","","682","","0","1","null","null","arrowup","[0.85,0.15,0.325,0.675]","","",""
"sailing-trial","205","917112","0.0-11.0-170.0","","","","false","","","","","","","","","","595.5","","172.60000000149012","","3","1","arrowright","1","arrowright","[0.85,0.15,0.325,0.675]","","",""
"sailing-trial","206","919528","0.0-11.0-171.0","","","","false","","","","","","","","","","null","","751.2999999970198","","3","1","null","null","arrowup","[0.85,0.15,0.325,0.675]","","",""
"sailing-trial","207","922826","0.0-11.0-172.0","","","","false","","","","","","","","","","567.0999999977648","","534.2999999970198","","3","0","arrowright","1","arrowright","[0.85,0.15,0.325,0.675]","","",""
"sailing-trial","208","925356","0.0-11.0-173.0","","","","false","","","","","","","","","","null","","1309","","1","0","null","null","arrowup","[0.85,0.15,0.325,0.675]","","",""
"sailing-trial","209","928978","0.0-11.0-174.0","","","","false","","","","","","","","","","538.6999999992549","","147.40000000223517","","3","1","arrowright","1","arrowright","[0.85,0.15,0.325,0.675]","","",""
"sailing-trial","210","931198","0.0-11.0-175.0","","","","false","","","","","","","","","","null","","972.3000000007451","","2","0","null","null","arrowup","[0.85,0.15,0.325,0.675]","","",""
"sailing-trial","211","934694","0.0-11.0-176.0","","","","false","","","","","","","","","","342.19999999925494","","534.6999999992549","","3","1","arrowright","1","arrowright","[0.85,0.15,0.325,0.675]","","",""
"sailing-trial","212","936997","0.0-11.0-177.0","","","","false","","","","","","","","","","null","","1078.4000000022352","","1","0","null","null","arrowup","[0.85,0.15,0.325,0.675]","","",""
"sailing-trial","213","940078","0.0-11.0-178.0","","","","false","","","","","","","","","","358.0999999977648","","44.899999998509884","","3","1","arrowright","1","arrowright","[0.85,0.15,0.325,0.675]","","",""
"sailing-trial","214","941857","0.0-11.0-179.0","","","","false","","","","","","","","","","null","","608.0999999977648","","2","0","null","null","arrowup","[0.85,0.15,0.325,0.675]","","",""
"sailing-trial","215","945162","0.0-11.0-180.0","","","","false","","","","","","","","","","264","","262.69999999925494","","3","1","arrowright","1","arrowright","[0.85,0.15,0.325,0.675]","","",""
"sailing-trial","216","947561","0.0-11.0-181.0","","","","false","","","","","","","","","","null","","708.6999999992549","","0","1","null","null","arrowup","[0.85,0.15,0.325,0.675]","","",""
"sailing-trial","217","951127","0.0-11.0-182.0","","","","false","","","","","","","","","","409.80000000074506","","375.0999999977648","","3","1","arrowright","1","arrowright","[0.85,0.15,0.325,0.675]","","",""
"sailing-trial","218","953480","0.0-11.0-183.0","","","","false","","","","","","","","","","null","","1104.800000000745","","1","0","null","null","arrowup","[0.85,0.15,0.325,0.675]","","",""
"sailing-trial","219","956671","0.0-11.0-184.0","","","","false","","","","","","","","","","460.5","","380","","3","0","arrowright","1","arrowright","[0.675,0.325,0.15,0.85]","","",""
"sailing-trial","220","959544","0.0-11.0-185.0","","","","false","","","","","","","","","","null","","1173.1000000014901","","0","1","null","null","arrowup","[0.675,0.325,0.15,0.85]","","",""
"sailing-trial","221","962826","0.0-11.0-186.0","","","","false","","","","","","","","","","326.69999999925494","","161.39999999850988","","0","1","arrowleft","0","arrowleft","[0.675,0.325,0.15,0.85]","","",""
"sailing-trial","222","964654","0.0-11.0-187.0","","","","false","","","","","","","","","","null","","583","","0","0","null","null","arrowup","[0.675,0.325,0.15,0.85]","","",""
"sailing-trial","223","968078","0.0-11.0-188.0","","","","false","","","","","","","","","","333.30000000074506","","161.80000000074506","","0","1","arrowleft","0","arrowleft","[0.675,0.325,0.15,0.85]","","",""
"sailing-trial","224","970411","0.0-11.0-189.0","","","","false","","","","","","","","","","null","","693","","3","1","null","null","arrowup","[0.675,0.325,0.15,0.85]","","",""
"sailing-trial","225","973860","0.0-11.0-190.0","","","","false","","","","","","","","","","510.80000000074506","","195.20000000298023","","0","1","arrowleft","0","arrowleft","[0.675,0.325,0.15,0.85]","","",""
"sailing-trial","226","976376","0.0-11.0-191.0","","","","false","","","","","","","","","","null","","612.1000000014901","","1","1","null","null","arrowup","[0.675,0.325,0.15,0.85]","","",""
"sailing-trial","227","980127","0.0-11.0-192.0","","","","false","","","","","","","","","","583.1999999992549","","390.5999999977648","","0","1","arrowleft","0","arrowleft","[0.675,0.325,0.15,0.85]","","",""
"sailing-trial","228","982113","0.0-11.0-193.0","","","","false","","","","","","","","","","null","","674.6000000014901","","1","0","null","null","arrowup","[0.675,0.325,0.15,0.85]","","",""
"sailing-trial","229","985828","0.0-11.0-194.0","","","","false","","","","","","","","","","580.1000000014901","","372","","0","1","arrowleft","0","arrowleft","[0.675,0.325,0.15,0.85]","","",""
"sailing-trial","230","988272","0.0-11.0-195.0","","","","false","","","","","","","","","","null","","1212.4000000022352","","1","0","null","null","arrowup","[0.675,0.325,0.15,0.85]","","",""
"sailing-trial","231","991302","0.0-11.0-196.0","","","","false","","","","","","","","","","464.1000000014901","","190.19999999925494","","0","0","arrowleft","0","arrowleft","[0.675,0.325,0.15,0.85]","","",""
"sailing-trial","232","993488","0.0-11.0-197.0","","","","false","","","","","","","","","","null","","807.6999999992549","","0","0","null","null","arrowup","[0.675,0.325,0.15,0.85]","","",""
"sailing-trial","233","997716","0.0-11.0-198.0","","","","false","","","","","","","","","","1233.300000000745","","575.3000000007451","","0","0","arrowleft","0","arrowleft","[0.675,0.325,0.15,0.85]","","",""
"sailing-trial","234","999635","0.0-11.0-199.0","","","","false","","","","","","","","","","null","","715.3999999985099","","2","0","null","null","arrowup","[0.675,0.325,0.15,0.85]","","",""
"sailing-trial","235","1003093","0.0-11.0-200.0","","","","false","","","","","","","","","","580.3000000007451","","186.69999999925494","","3","1","arrowright","1","arrowright","[0.675,0.325,0.15,0.85]","","",""
"sailing-trial","236","1005270","0.0-11.0-201.0","","","","false","","","","","","","","","","null","","869.6999999992549","","1","0","null","null","arrowup","[0.675,0.325,0.15,0.85]","","",""
"sailing-trial","237","1008264","0.0-11.0-202.0","","","","false","","","","","","","","","","514.6000000014901","","156.40000000223517","","3","0","arrowright","1","arrowright","[0.675,0.325,0.15,0.85]","","",""
"sailing-trial","238","1010960","0.0-11.0-203.0","","","","false","","","","","","","","","","null","","735.1999999992549","","0","1","null","null","arrowup","[0.675,0.325,0.15,0.85]","","",""
"sailing-trial","239","1016242","0.0-11.0-204.0","","","","false","","","","","","","","","","461.3999999985099","","248.60000000149012","","3","1","arrowright","1","arrowright","[0.85,0.15,0.325,0.675]","","",""
"sailing-trial","240","1021159","0.0-11.0-205.0","","","","false","","","","","","","","","","null","","1036.2999999970198","","2","1","null","null","arrowup","[0.85,0.15,0.325,0.675]","","",""
"sailing-trial","241","1024785","0.0-11.0-206.0","","","","false","","","","","","","","","","557.1000000014901","","385.6000000014901","","3","0","arrowright","1","arrowright","[0.85,0.15,0.325,0.675]","","",""
"sailing-trial","242","1027544","0.0-11.0-207.0","","","","false","","","","","","","","","","null","","1344.8999999985099","","1","0","null","null","arrowup","[0.85,0.15,0.325,0.675]","","",""
"sailing-trial","243","1032342","0.0-11.0-208.0","","","","false","","","","","","","","","","846.1999999992549","","156.30000000074506","","2","1","arrowright","1","arrowleft","[0.85,0.15,0.325,0.675]","","",""
"sailing-trial","244","1036263","0.0-11.0-209.0","","","","false","","","","","","","","","","null","","2386.699999999255","","1","0","null","null","arrowup","[0.85,0.15,0.325,0.675]","","",""
"sailing-trial","245","1040558","0.0-11.0-210.0","","","","false","","","","","","","","","","907.1999999992549","","143.59999999776483","","2","1","arrowright","1","arrowleft","[0.85,0.15,0.325,0.675]","","",""
"sailing-trial","246","1043709","0.0-11.0-211.0","","","","false","","","","","","","","","","null","","1285.5","","0","1","null","null","arrowup","[0.85,0.15,0.325,0.675]","","",""
"sailing-trial","247","1048807","0.0-11.0-212.0","","","","false","","","","","","","","","","706.3000000007451","","62.099999997764826","","2","1","arrowright","1","arrowleft","[0.85,0.15,0.325,0.675]","","",""
"sailing-trial","248","1052241","0.0-11.0-213.0","","","","false","","","","","","","","","","null","","1623.699999999255","","2","1","null","null","arrowup","[0.85,0.15,0.325,0.675]","","",""
"sailing-trial","249","1060424","0.0-11.0-214.0","","","","false","","","","","","","","","","1659.300000000745","","34.20000000298023","","2","1","arrowright","1","arrowleft","[0.85,0.15,0.325,0.675]","","",""
"sailing-trial","250","1065442","0.0-11.0-215.0","","","","false","","","","","","","","","","null","","2711","","0","1","null","null","arrowup","[0.85,0.15,0.325,0.675]","","",""
"sailing-trial","251","1070657","0.0-11.0-216.0","","","","false","","","","","","","","","","1030.300000000745","","235.30000000074506","","2","0","arrowright","1","arrowleft","[0.85,0.15,0.325,0.675]","","",""
"sailing-trial","252","1074375","0.0-11.0-217.0","","","","false","","","","","","","","","","null","","1721","","3","1","null","null","arrowup","[0.85,0.15,0.325,0.675]","","",""
"sailing-trial","253","1078738","0.0-11.0-218.0","","","","false","","","","","","","","","","750.5999999977648","","1258","","1","0","arrowleft","0","arrowright","[0.85,0.15,0.325,0.675]","","",""
"sailing-trial","254","1081897","0.0-11.0-219.0","","","","false","","","","","","","","","","null","","1600.5999999977648","","1","0","null","null","arrowup","[0.85,0.15,0.325,0.675]","","",""
"sailing-trial","255","1085791","0.0-11.0-220.0","","","","false","","","","","","","","","","877.1000000014901","","147.69999999925494","","0","1","arrowleft","0","arrowleft","[0.675,0.325,0.15,0.85]","","",""
"sailing-trial","256","1088862","0.0-11.0-221.0","","","","false","","","","","","","","","","null","","1693.5","","3","0","null","null","arrowup","[0.675,0.325,0.15,0.85]","","",""
"sailing-trial","257","1092291","0.0-11.0-222.0","","","","false","","","","","","","","","","424.8999999985099","","241.40000000223517","","0","1","arrowleft","0","arrowleft","[0.675,0.325,0.15,0.85]","","",""
"sailing-trial","258","1094355","0.0-11.0-223.0","","","","false","","","","","","","","","","null","","812.8000000007451","","3","0","null","null","arrowup","[0.675,0.325,0.15,0.85]","","",""
"sailing-trial","259","1096973","0.0-11.0-224.0","","","","false","","","","","","","","","","260.19999999925494","","58.80000000074506","","0","0","arrowleft","0","arrowleft","[0.675,0.325,0.15,0.85]","","",""
"sailing-trial","260","1099089","0.0-11.0-225.0","","","","false","","","","","","","","","","null","","799.6000000014901","","2","0","null","null","arrowup","[0.675,0.325,0.15,0.85]","","",""
"sailing-trial","261","1102706","0.0-11.0-226.0","","","","false","","","","","","","","","","531.4000000022352","","170.5","","3","1","arrowright","1","arrowright","[0.675,0.325,0.15,0.85]","","",""
"sailing-trial","262","1106057","0.0-11.0-227.0","","","","false","","","","","","","","","","null","","1492.199999999255","","3","1","null","null","arrowup","[0.675,0.325,0.15,0.85]","","",""
"sailing-trial","263","1109657","0.0-11.0-228.0","","","","false","","","","","","","","","","584","","256.19999999925494","","3","1","arrowright","1","arrowright","[0.675,0.325,0.15,0.85]","","",""
"sailing-trial","264","1112175","0.0-11.0-229.0","","","","false","","","","","","","","","","null","","1026.199999999255","","1","0","null","null","arrowup","[0.675,0.325,0.15,0.85]","","",""
"sailing-trial","265","1115791","0.0-11.0-230.0","","","","false","","","","","","","","","","580","","219.10000000149012","","3","1","arrowright","1","arrowright","[0.675,0.325,0.15,0.85]","","",""
"sailing-trial","266","1117796","0.0-11.0-231.0","","","","false","","","","","","","","","","null","","776.1999999992549","","2","0","null","null","arrowup","[0.675,0.325,0.15,0.85]","","",""
"sailing-trial","267","1121114","0.0-11.0-232.0","","","","false","","","","","","","","","","475.3999999985099","","282.3999999985099","","3","0","arrowright","1","arrowright","[0.675,0.325,0.15,0.85]","","",""
"sailing-trial","268","1123199","0.0-11.0-233.0","","","","false","","","","","","","","","","null","","839.8000000007451","","2","0","null","null","arrowup","[0.675,0.325,0.15,0.85]","","",""
"sailing-trial","269","1126705","0.0-11.0-234.0","","","","false","","","","","","","","","","478.80000000074506","","109.10000000149012","","3","1","arrowright","1","arrowright","[0.675,0.325,0.15,0.85]","","",""
"sailing-trial","270","1128445","0.0-11.0-235.0","","","","false","","","","","","","","","","null","","643.0999999977648","","2","0","null","null","arrowup","[0.675,0.325,0.15,0.85]","","",""
"sailing-trial","271","1131889","0.0-11.0-236.0","","","","false","","","","","","","","","","337.79999999701977","","250.39999999850988","","3","1","arrowright","1","arrowright","[0.85,0.15,0.325,0.675]","","",""
"sailing-trial","272","1134323","0.0-11.0-237.0","","","","false","","","","","","","","","","null","","704.1999999992549","","0","1","null","null","arrowup","[0.85,0.15,0.325,0.675]","","",""
"sailing-trial","273","1138205","0.0-11.0-238.0","","","","false","","","","","","","","","","578.6999999992549","","355.70000000298023","","3","1","arrowright","1","arrowright","[0.85,0.15,0.325,0.675]","","",""
"sailing-trial","274","1141741","0.0-11.0-239.0","","","","false","","","","","","","","","","null","","1929.800000000745","","2","0","null","null","arrowup","[0.85,0.15,0.325,0.675]","","",""
"sailing-trial","275","1145513","0.0-11.0-240.0","","","","false","","","","","","","","","","456.29999999701977","","844.1999999992549","","3","0","arrowright","1","arrowright","[0.85,0.15,0.325,0.675]","","",""
"sailing-trial","276","1148022","0.0-11.0-241.0","","","","false","","","","","","","","","","null","","706","","0","1","null","null","arrowup","[0.85,0.15,0.325,0.675]","","",""
"sailing-trial","277","1151122","0.0-11.0-242.0","","","","false","","","","","","","","","","84","","259.0999999977648","","0","1","arrowleft","0","arrowleft","[0.85,0.15,0.325,0.675]","","",""
"sailing-trial","278","1153133","0.0-11.0-243.0","","","","false","","","","","","","","","","null","","760.3000000007451","","1","0","null","null","arrowup","[0.85,0.15,0.325,0.675]","","",""
"sailing-trial","279","1156206","0.0-11.0-244.0","","","","false","","","","","","","","","","234.70000000298023","","166.80000000074506","","0","1","arrowleft","0","arrowleft","[0.85,0.15,0.325,0.675]","","",""
"sailing-trial","280","1159256","0.0-11.0-245.0","","","","false","","","","","","","","","","null","","1296.3999999985099","","2","1","null","null","arrowup","[0.85,0.15,0.325,0.675]","","",""
"sailing-trial","281","1162472","0.0-11.0-246.0","","","","false","","","","","","","","","","371.6000000014901","","23","","0","1","arrowleft","0","arrowleft","[0.85,0.15,0.325,0.675]","","",""
"sailing-trial","282","1164988","0.0-11.0-247.0","","","","false","","","","","","","","","","null","","793","","0","1","null","null","arrowup","[0.85,0.15,0.325,0.675]","","",""
"sailing-trial","283","1168423","0.0-11.0-248.0","","","","false","","","","","","","","","","311.1000000014901","","236.80000000074506","","0","1","arrowleft","0","arrowleft","[0.85,0.15,0.325,0.675]","","",""
"sailing-trial","284","1171323","0.0-11.0-249.0","","","","false","","","","","","","","","","null","","1091.5","","2","1","null","null","arrowup","[0.85,0.15,0.325,0.675]","","",""
"sailing-trial","285","1175189","0.0-11.0-250.0","","","","false","","","","","","","","","","769","","167.90000000223517","","0","1","arrowleft","0","arrowleft","[0.85,0.15,0.325,0.675]","","",""
"sailing-trial","286","1177268","0.0-11.0-251.0","","","","false","","","","","","","","","","null","","871.3000000007451","","3","0","null","null","arrowup","[0.85,0.15,0.325,0.675]","","",""
"sailing-trial","287","1180705","0.0-11.0-252.0","","","","false","","","","","","","","","","408.80000000074506","","148.89999999850988","","0","1","arrowleft","0","arrowleft","[0.325,0.675,0.85,0.15]","","",""
"sailing-trial","288","1183352","0.0-11.0-253.0","","","","false","","","","","","","","","","null","","1029.7999999970198","","1","0","null","null","arrowup","[0.325,0.675,0.85,0.15]","","",""
"sailing-trial","289","1186204","0.0-11.0-254.0","","","","false","","","","","","","","","","534.9000000022352","","84.80000000074506","","0","0","arrowleft","0","arrowleft","[0.325,0.675,0.85,0.15]","","",""
"sailing-trial","290","1188259","0.0-11.0-255.0","","","","false","","","","","","","","","","null","","834.2000000029802","","1","0","null","null","arrowup","[0.325,0.675,0.85,0.15]","","",""
"sailing-trial","291","1191655","0.0-11.0-256.0","","","","false","","","","","","","","","","458","","121.89999999850988","","2","1","arrowright","1","arrowleft","[0.325,0.675,0.85,0.15]","","",""
"sailing-trial","292","1194072","0.0-11.0-257.0","","","","false","","","","","","","","","","null","","674.1999999992549","","2","1","null","null","arrowup","[0.325,0.675,0.85,0.15]","","",""
"sailing-trial","293","1197689","0.0-11.0-258.0","","","","false","","","","","","","","","","707.5999999977648","","180.10000000149012","","2","1","arrowright","1","arrowleft","[0.325,0.675,0.85,0.15]","","",""
"sailing-trial","294","1200406","0.0-11.0-259.0","","","","false","","","","","","","","","","null","","918.7999999970198","","2","1","null","null","arrowup","[0.325,0.675,0.85,0.15]","","",""
"sailing-trial","295","1204239","0.0-11.0-260.0","","","","false","","","","","","","","","","481.69999999925494","","401","","2","1","arrowright","1","arrowleft","[0.325,0.675,0.85,0.15]","","",""
"sailing-trial","296","1206444","0.0-11.0-261.0","","","","false","","","","","","","","","","null","","686.9000000022352","","0","0","null","null","arrowup","[0.325,0.675,0.85,0.15]","","",""
"sailing-trial","297","1210255","0.0-11.0-262.0","","","","false","","","","","","","","","","606.6000000014901","","305.4000000022352","","2","1","arrowright","1","arrowleft","[0.325,0.675,0.85,0.15]","","",""
"sailing-trial","298","1212264","0.0-11.0-263.0","","","","false","","","","","","","","","","null","","584.8000000007451","","3","0","null","null","arrowup","[0.325,0.675,0.85,0.15]","","",""
"sailing-trial","299","1215690","0.0-11.0-264.0","","","","false","","","","","","","","","","369.0999999977648","","253.59999999776483","","2","1","arrowright","1","arrowleft","[0.325,0.675,0.85,0.15]","","",""
"sailing-trial","300","1217632","0.0-11.0-265.0","","","","false","","","","","","","","","","null","","640.3000000007451","","0","0","null","null","arrowup","[0.325,0.675,0.85,0.15]","","",""
"sailing-trial","301","1221157","0.0-11.0-266.0","","","","false","","","","","","","","","","389.69999999925494","","289.30000000074506","","2","1","arrowright","1","arrowleft","[0.325,0.675,0.85,0.15]","","",""
"sailing-trial","302","1222947","0.0-11.0-267.0","","","","false","","","","","","","","","","null","","576.8000000007451","","0","0","null","null","arrowup","[0.325,0.675,0.85,0.15]","","",""
"sailing-trial","303","1226305","0.0-11.0-268.0","","","","false","","","","","","","","","","421.5999999977648","","128.5","","2","1","arrowright","1","arrowleft","[0.325,0.675,0.85,0.15]","","",""
"sailing-trial","304","1228446","0.0-11.0-269.0","","","","false","","","","","","","","","","null","","746.9000000022352","","1","0","null","null","arrowup","[0.325,0.675,0.85,0.15]","","",""
"sailing-trial","305","1232053","0.0-11.0-270.0","","","","false","","","","","","","","","","479.29999999701977","","487","","2","1","arrowright","1","arrowleft","[0.325,0.675,0.85,0.15]","","",""
"sailing-trial","306","1233940","0.0-11.0-271.0","","","","false","","","","","","","","","","null","","606.6000000014901","","0","0","null","null","arrowup","[0.325,0.675,0.85,0.15]","","",""
"sailing-trial","307","1237338","0.0-11.0-272.0","","","","false","","","","","","","","","","429.70000000298023","","195.19999999925494","","2","1","arrowright","1","arrowleft","[0.325,0.675,0.85,0.15]","","",""
"sailing-trial","308","1239538","0.0-11.0-273.0","","","","false","","","","","","","","","","null","","578.6999999992549","","3","1","null","null","arrowup","[0.325,0.675,0.85,0.15]","","",""
"sailing-trial","309","1242606","0.0-11.0-274.0","","","","false","","","","","","","","","","379","","166.09999999776483","","2","0","arrowright","1","arrowleft","[0.15,0.85,0.675,0.325]","","",""
"sailing-trial","310","1245103","0.0-11.0-275.0","","","","false","","","","","","","","","","null","","667.3999999985099","","2","1","null","null","arrowup","[0.15,0.85,0.675,0.325]","","",""
"sailing-trial","311","1247912","0.0-11.0-276.0","","","","false","","","","","","","","","","587.4000000022352","","25.400000002235174","","2","0","arrowright","1","arrowleft","[0.15,0.85,0.675,0.325]","","",""
"sailing-trial","312","1250055","0.0-11.0-277.0","","","","false","","","","","","","","","","null","","598.3000000007451","","1","1","null","null","arrowup","[0.15,0.85,0.675,0.325]","","",""
"sailing-trial","313","1252839","0.0-11.0-278.0","","","","false","","","","","","","","","","133.19999999925494","","47.80000000074506","","3","1","arrowright","1","arrowright","[0.15,0.85,0.675,0.325]","","",""
"sailing-trial","314","1254609","0.0-11.0-279.0","","","","false","","","","","","","","","","null","","612.2999999970198","","3","0","null","null","arrowup","[0.15,0.85,0.675,0.325]","","",""
"sailing-trial","315","1258405","0.0-11.0-280.0","","","","false","","","","","","","","","","466.4000000022352","","532.6999999992549","","1","1","arrowleft","0","arrowright","[0.15,0.85,0.675,0.325]","","",""
"sailing-trial","316","1260447","0.0-11.0-281.0","","","","false","","","","","","","","","","null","","657.8999999985099","","3","0","null","null","arrowup","[0.15,0.85,0.675,0.325]","","",""
"sailing-trial","317","1263919","0.0-11.0-282.0","","","","false","","","","","","","","","","609.6000000014901","","86.5","","1","1","arrowleft","0","arrowright","[0.15,0.85,0.675,0.325]","","",""
"sailing-trial","318","1266219","0.0-11.0-283.0","","","","false","","","","","","","","","","null","","625.3000000007451","","2","1","null","null","arrowup","[0.15,0.85,0.675,0.325]","","",""
"sailing-trial","319","1269025","0.0-11.0-284.0","","","","false","","","","","","","","","","361.9000000022352","","198","","1","0","arrowleft","0","arrowright","[0.15,0.85,0.675,0.325]","","",""
"sailing-trial","320","1271009","0.0-11.0-285.0","","","","false","","","","","","","","","","null","","779","","3","0","null","null","arrowup","[0.15,0.85,0.675,0.325]","","",""
"sailing-trial","321","1274303","0.0-11.0-286.0","","","","false","","","","","","","","","","456.69999999925494","","113.09999999776483","","2","1","arrowright","1","arrowleft","[0.15,0.85,0.675,0.325]","","",""
"sailing-trial","322","1276754","0.0-11.0-287.0","","","","false","","","","","","","","","","null","","663.8999999985099","","3","1","null","null","arrowup","[0.15,0.85,0.675,0.325]","","",""
"sailing-trial","323","1280382","0.0-11.0-288.0","","","","false","","","","","","","","","","494.6000000014901","","904.1999999992549","","3","0","arrowright","1","arrowright","[0.15,0.85,0.675,0.325]","","",""
"sailing-trial","324","1282352","0.0-11.0-289.0","","","","false","","","","","","","","","","null","","795.1000000014901","","0","0","null","null","arrowup","[0.15,0.85,0.675,0.325]","","",""
"sailing-trial","325","1285077","0.0-11.0-290.0","","","","false","","","","","","","","","","404.19999999925494","","137.69999999925494","","2","0","arrowright","1","arrowleft","[0.15,0.85,0.675,0.325]","","",""
"sailing-trial","326","1287603","0.0-11.0-291.0","","","","false","","","","","","","","","","null","","945.5","","1","1","null","null","arrowup","[0.15,0.85,0.675,0.325]","","",""
"sailing-trial","327","1290458","0.0-11.0-292.0","","","","false","","","","","","","","","","330.5","","352.80000000074506","","1","0","arrowleft","0","arrowright","[0.85,0.15,0.325,0.675]","","",""
"sailing-trial","328","1292622","0.0-11.0-293.0","","","","false","","","","","","","","","","null","","1082.6000000014901","","1","0","null","null","arrowup","[0.85,0.15,0.325,0.675]","","",""
"sailing-trial","329","1296235","0.0-11.0-294.0","","","","false","","","","","","","","","","576","","579.5","","2","0","arrowright","1","arrowleft","[0.85,0.15,0.325,0.675]","","",""
"sailing-trial","330","1298066","0.0-11.0-295.0","","","","false","","","","","","","","","","null","","688","","1","0","null","null","arrowup","[0.85,0.15,0.325,0.675]","","",""
"sailing-trial","331","1300802","0.0-11.0-296.0","","","","false","","","","","","","","","","438","","7.299999997019768","","3","0","arrowright","1","arrowright","[0.85,0.15,0.325,0.675]","","",""
"sailing-trial","332","1303337","0.0-11.0-297.0","","","","false","","","","","","","","","","null","","642.6000000014901","","1","1","null","null","arrowup","[0.85,0.15,0.325,0.675]","","",""
"sailing-trial","333","1305778","0.0-11.0-298.0","","","","false","","","","","","","","","","247.69999999925494","","34.80000000074506","","1","0","arrowleft","0","arrowright","[0.85,0.15,0.325,0.675]","","",""
"sailing-trial","334","1308570","0.0-11.0-299.0","","","","false","","","","","","","","","","null","","1096.199999999255","","2","1","null","null","arrowup","[0.85,0.15,0.325,0.675]","","",""
"sailing-trial","335","1311698","0.0-11.0-300.0","","","","false","","","","","","","","","","113.40000000223517","","262.3999999985099","","2","0","arrowright","1","arrowleft","[0.85,0.15,0.325,0.675]","","",""
"sailing-trial","336","1314019","0.0-11.0-301.0","","","","false","","","","","","","","","","null","","585.6999999992549","","0","1","null","null","arrowup","[0.85,0.15,0.325,0.675]","","",""
"sailing-trial","337","1317170","0.0-11.0-302.0","","","","false","","","","","","","","","","166.30000000074506","","166.60000000149012","","0","1","arrowleft","0","arrowleft","[0.85,0.15,0.325,0.675]","","",""
"sailing-trial","338","1319179","0.0-11.0-303.0","","","","false","","","","","","","","","","null","","820.1999999992549","","3","0","null","null","arrowup","[0.85,0.15,0.325,0.675]","","",""
"sailing-trial","339","1322253","0.0-11.0-304.0","","","","false","","","","","","","","","","384.5999999977648","","48.600000001490116","","0","1","arrowleft","0","arrowleft","[0.85,0.15,0.325,0.675]","","",""
"sailing-trial","340","1324919","0.0-11.0-305.0","","","","false","","","","","","","","","","null","","911.8999999985099","","1","1","null","null","arrowup","[0.85,0.15,0.325,0.675]","","",""
"sailing-trial","341","1328169","0.0-11.0-306.0","","","","false","","","","","","","","","","199.5","","147.40000000223517","","0","1","arrowleft","0","arrowleft","[0.85,0.15,0.325,0.675]","","",""
"sailing-trial","342","1330837","0.0-11.0-307.0","","","","false","","","","","","","","","","null","","761.4000000022352","","0","1","null","null","arrowup","[0.85,0.15,0.325,0.675]","","",""
"sailing-trial","343","1334502","0.0-11.0-308.0","","","","false","","","","","","","","","","865.3000000007451","","34","","0","1","arrowleft","0","arrowleft","[0.85,0.15,0.325,0.675]","","",""
"sailing-trial","344","1336414","0.0-11.0-309.0","","","","false","","","","","","","","","","null","","701.5","","3","0","null","null","arrowup","[0.85,0.15,0.325,0.675]","","",""
"sailing-trial","345","1339819","0.0-11.0-310.0","","","","false","","","","","","","","","","403.9000000022352","","362.1000000014901","","0","1","arrowleft","0","arrowleft","[0.85,0.15,0.325,0.675]","","",""
"sailing-trial","346","1341729","0.0-11.0-311.0","","","","false","","","","","","","","","","null","","683.6999999992549","","2","0","null","null","arrowup","[0.85,0.15,0.325,0.675]","","",""
"sailing-trial","347","1344593","0.0-11.0-312.0","","","","false","","","","","","","","","","509.19999999925494","","131.80000000074506","","0","0","arrowleft","0","arrowleft","[0.675,0.325,0.15,0.85]","","",""
"sailing-trial","348","1346683","0.0-11.0-313.0","","","","false","","","","","","","","","","null","","879.8999999985099","","2","0","null","null","arrowup","[0.675,0.325,0.15,0.85]","","",""
"sailing-trial","349","1350145","0.0-11.0-314.0","","","","false","","","","","","","","","","469.30000000074506","","561.2000000029802","","1","0","arrowleft","0","arrowright","[0.675,0.325,0.15,0.85]","","",""
"sailing-trial","350","1352702","0.0-11.0-315.0","","","","false","","","","","","","","","","null","","826.8000000007451","","3","1","null","null","arrowup","[0.675,0.325,0.15,0.85]","","",""
"sailing-trial","351","1356152","0.0-11.0-316.0","","","","false","","","","","","","","","","343.80000000074506","","303.5","","3","1","arrowright","1","arrowright","[0.675,0.325,0.15,0.85]","","",""
"sailing-trial","352","1358768","0.0-11.0-317.0","","","","false","","","","","","","","","","null","","874.8000000007451","","1","1","null","null","arrowup","[0.675,0.325,0.15,0.85]","","",""
"sailing-trial","353","1362452","0.0-11.0-318.0","","","","false","","","","","","","","","","593.4000000022352","","190.09999999776483","","3","1","arrowright","1","arrowright","[0.675,0.325,0.15,0.85]","","",""
"sailing-trial","354","1364658","0.0-11.0-319.0","","","","false","","","","","","","","","","null","","847.6999999992549","","1","0","null","null","arrowup","[0.675,0.325,0.15,0.85]","","",""
"sailing-trial","355","1368434","0.0-11.0-320.0","","","","false","","","","","","","","","","442.1000000014901","","455.19999999925494","","3","1","arrowright","1","arrowright","[0.675,0.325,0.15,0.85]","","",""
"sailing-trial","356","1371184","0.0-11.0-321.0","","","","false","","","","","","","","","","null","","981.0999999977648","","1","1","null","null","arrowup","[0.675,0.325,0.15,0.85]","","",""
"sailing-trial","357","1374984","0.0-11.0-322.0","","","","false","","","","","","","","","","657.8000000007451","","327.8999999985099","","3","1","arrowright","1","arrowright","[0.675,0.325,0.15,0.85]","","",""
"sailing-trial","358","1377417","0.0-11.0-323.0","","","","false","","","","","","","","","","null","","710","","0","1","null","null","arrowup","[0.675,0.325,0.15,0.85]","","",""
"sailing-trial","359","1381167","0.0-11.0-324.0","","","","false","","","","","","","","","","522.3000000007451","","157.19999999925494","","3","1","arrowright","1","arrowright","[0.675,0.325,0.15,0.85]","","",""
"sailing-trial","360","1383834","0.0-11.0-325.0","","","","false","","","","","","","","","","null","","874.5","","3","1","null","null","arrowup","[0.675,0.325,0.15,0.85]","","",""
"sailing-trial","361","1387285","0.0-11.0-326.0","","","","false","","","","","","","","","","596.1999999992549","","556.8999999985099","","3","0","arrowright","1","arrowright","[0.675,0.325,0.15,0.85]","","",""
"sailing-trial","362","1389594","0.0-11.0-327.0","","","","false","","","","","","","","","","null","","1004.6999999992549","","2","0","null","null","arrowup","[0.675,0.325,0.15,0.85]","","",""
"sailing-trial","363","1393733","0.0-11.0-328.0","","","","false","","","","","","","","","","578.0999999977648","","753","","0","1","arrowleft","0","arrowleft","[0.675,0.325,0.15,0.85]","","",""
"sailing-trial","364","1396167","0.0-11.0-329.0","","","","false","","","","","","","","","","null","","658.8999999985099","","0","1","null","null","arrowup","[0.675,0.325,0.15,0.85]","","",""
"sailing-trial","365","1399485","0.0-11.0-330.0","","","","false","","","","","","","","","","364.1000000014901","","159.5","","0","1","arrowleft","0","arrowleft","[0.675,0.325,0.15,0.85]","","",""
"sailing-trial","366","1401364","0.0-11.0-331.0","","","","false","","","","","","","","","","null","","704.6999999992549","","1","0","null","null","arrowup","[0.675,0.325,0.15,0.85]","","",""
"sailing-trial","367","1404934","0.0-11.0-332.0","","","","false","","","","","","","","","","375.19999999925494","","168.39999999850988","","0","1","arrowleft","0","arrowleft","[0.85,0.15,0.325,0.675]","","",""
"sailing-trial","368","1407252","0.0-11.0-333.0","","","","false","","","","","","","","","","null","","639.6999999992549","","0","1","null","null","arrowup","[0.85,0.15,0.325,0.675]","","",""
"sailing-trial","369","1410684","0.0-11.0-334.0","","","","false","","","","","","","","","","466.5","","108","","0","1","arrowleft","0","arrowleft","[0.85,0.15,0.325,0.675]","","",""
"sailing-trial","370","1413151","0.0-11.0-335.0","","","","false","","","","","","","","","","null","","640.5","","3","1","null","null","arrowup","[0.85,0.15,0.325,0.675]","","",""
"sailing-trial","371","1417550","0.0-11.0-336.0","","","","false","","","","","","","","","","395.1000000014901","","1180.8999999985099","","0","1","arrowleft","0","arrowleft","[0.85,0.15,0.325,0.675]","","",""
"sailing-trial","372","1421123","0.0-11.0-337.0","","","","false","","","","","","","","","","null","","2251","","2","0","null","null","arrowup","[0.85,0.15,0.325,0.675]","","",""
"sailing-trial","373","1424399","0.0-11.0-338.0","","","","false","","","","","","","","","","513.6000000014901","","102.80000000074506","","0","1","arrowleft","0","arrowleft","[0.85,0.15,0.325,0.675]","","",""
"sailing-trial","374","1427085","0.0-11.0-339.0","","","","false","","","","","","","","","","null","","835.6999999992549","","0","1","null","null","arrowup","[0.85,0.15,0.325,0.675]","","",""
"sailing-trial","375","1431317","0.0-11.0-340.0","","","","false","","","","","","","","","","603.5","","887.7000000029802","","0","1","arrowleft","0","arrowleft","[0.85,0.15,0.325,0.675]","","",""
"sailing-trial","376","1433414","0.0-11.0-341.0","","","","false","","","","","","","","","","null","","821.0999999977648","","2","0","null","null","arrowup","[0.85,0.15,0.325,0.675]","","",""
"sailing-trial","377","1436934","0.0-11.0-342.0","","","","false","","","","","","","","","","535.0999999977648","","104","","3","1","arrowright","1","arrowright","[0.85,0.15,0.325,0.675]","","",""
"sailing-trial","378","1439102","0.0-11.0-343.0","","","","false","","","","","","","","","","null","","523.6000000014901","","3","1","null","null","arrowup","[0.85,0.15,0.325,0.675]","","",""
"sailing-trial","379","1442449","0.0-11.0-344.0","","","","false","","","","","","","","","","386.6000000014901","","251.39999999850988","","3","1","arrowright","1","arrowright","[0.85,0.15,0.325,0.675]","","",""
"sailing-trial","380","1445034","0.0-11.0-345.0","","","","false","","","","","","","","","","null","","784.0999999977648","","3","1","null","null","arrowup","[0.85,0.15,0.325,0.675]","","",""
"sailing-trial","381","1448732","0.0-11.0-346.0","","","","false","","","","","","","","","","609.0999999977648","","347.5","","3","1","arrowright","1","arrowright","[0.85,0.15,0.325,0.675]","","",""
"sailing-trial","382","1451818","0.0-11.0-347.0","","","","false","","","","","","","","","","null","","1373.699999999255","","3","1","null","null","arrowup","[0.85,0.15,0.325,0.675]","","",""
"sailing-trial","383","1455005","0.0-11.0-348.0","","","","false","","","","","","","","","","547.6000000014901","","421.30000000074506","","3","0","arrowright","1","arrowright","[0.325,0.675,0.85,0.15]","","",""
"sailing-trial","384","1457101","0.0-11.0-349.0","","","","false","","","","","","","","","","null","","856.8000000007451","","3","0","null","null","arrowup","[0.325,0.675,0.85,0.15]","","",""
"sailing-trial","385","1461116","0.0-11.0-350.0","","","","false","","","","","","","","","","472.9000000022352","","620.7000000029802","","1","1","arrowleft","0","arrowright","[0.325,0.675,0.85,0.15]","","",""
"sailing-trial","386","1463355","0.0-11.0-351.0","","","","false","","","","","","","","","","null","","1001.1999999992549","","2","0","null","null","arrowup","[0.325,0.675,0.85,0.15]","","",""
"sailing-trial","387","1467150","0.0-11.0-352.0","","","","false","","","","","","","","","","516.1999999992549","","454.4000000022352","","1","1","arrowleft","0","arrowright","[0.325,0.675,0.85,0.15]","","",""
"sailing-trial","388","1469616","0.0-11.0-353.0","","","","false","","","","","","","","","","null","","439.6000000014901","","2","1","null","null","arrowup","[0.325,0.675,0.85,0.15]","","",""
"sailing-trial","389","1473238","0.0-11.0-354.0","","","","false","","","","","","","","","","433.9000000022352","","693.1999999992549","","1","0","arrowleft","0","arrowright","[0.325,0.675,0.85,0.15]","","",""
"sailing-trial","390","1475380","0.0-11.0-355.0","","","","false","","","","","","","","","","null","","856","","0","0","null","null","arrowup","[0.325,0.675,0.85,0.15]","","",""
"sailing-trial","391","1479033","0.0-11.0-356.0","","","","false","","","","","","","","","","443","","470.1000000014901","","2","1","arrowright","1","arrowleft","[0.325,0.675,0.85,0.15]","","",""
"sailing-trial","392","1480791","0.0-11.0-357.0","","","","false","","","","","","","","","","null","","658.0999999977648","","0","0","null","null","arrowup","[0.325,0.675,0.85,0.15]","","",""
"sailing-trial","393","1484435","0.0-11.0-358.0","","","","false","","","","","","","","","","468.3999999985099","","444.6000000014901","","2","1","arrowright","1","arrowleft","[0.325,0.675,0.85,0.15]","","",""
"sailing-trial","394","1486900","0.0-11.0-359.0","","","","false","","","","","","","","","","null","","743.5","","2","1","null","null","arrowup","[0.325,0.675,0.85,0.15]","","",""
"sailing-trial","395","1490449","0.0-11.0-360.0","","","","false","","","","","","","","","","431.1000000014901","","472.5","","2","1","arrowright","1","arrowleft","[0.325,0.675,0.85,0.15]","","",""
"sailing-trial","396","1492377","0.0-11.0-361.0","","","","false","","","","","","","","","","null","","848.1000000014901","","3","0","null","null","arrowup","[0.325,0.675,0.85,0.15]","","",""
"sailing-trial","397","1495023","0.0-11.0-362.0","","","","false","","","","","","","","","","377","","78.60000000149012","","2","0","arrowright","1","arrowleft","[0.325,0.675,0.85,0.15]","","",""
"sailing-trial","398","1496982","0.0-11.0-363.0","","","","false","","","","","","","","","","null","","792.9000000022352","","0","0","null","null","arrowup","[0.325,0.675,0.85,0.15]","","",""
"sailing-trial","399","1500383","0.0-11.0-364.0","","","","false","","","","","","","","","","364.4000000022352","","358","","1","1","arrowleft","0","arrowright","[0.15,0.85,0.675,0.325]","","",""
"sailing-trial","400","1502616","0.0-11.0-365.0","","","","false","","","","","","","","","","null","","717.3999999985099","","2","1","null","null","arrowup","[0.15,0.85,0.675,0.325]","","",""
"sailing-trial","401","1505899","0.0-11.0-366.0","","","","false","","","","","","","","","","435.19999999925494","","208.60000000149012","","1","1","arrowleft","0","arrowright","[0.15,0.85,0.675,0.325]","","",""
"sailing-trial","402","1507750","0.0-11.0-367.0","","","","false","","","","","","","","","","null","","656.1000000014901","","3","0","null","null","arrowup","[0.15,0.85,0.675,0.325]","","",""
"sailing-trial","403","1511004","0.0-11.0-368.0","","","","false","","","","","","","","","","429.5","","528.8000000007451","","1","0","arrowleft","0","arrowright","[0.15,0.85,0.675,0.325]","","",""
"sailing-trial","404","1513482","0.0-11.0-369.0","","","","false","","","","","","","","","","null","","848","","2","1","null","null","arrowup","[0.15,0.85,0.675,0.325]","","",""
"sailing-trial","405","1516882","0.0-11.0-370.0","","","","false","","","","","","","","","","621.3000000007451","","60.099999997764826","","2","1","arrowright","1","arrowleft","[0.15,0.85,0.675,0.325]","","",""
"sailing-trial","406","1518688","0.0-11.0-371.0","","","","false","","","","","","","","","","null","","594.1999999992549","","2","0","null","null","arrowup","[0.15,0.85,0.675,0.325]","","",""
"sailing-trial","407","1521585","0.0-11.0-372.0","","","","false","","","","","","","","","","451.5","","100.10000000149012","","3","0","arrowright","1","arrowright","[0.15,0.85,0.675,0.325]","","",""
"sailing-trial","408","1523881","0.0-11.0-373.0","","","","false","","","","","","","","","","null","","751.3999999985099","","1","1","null","null","arrowup","[0.15,0.85,0.675,0.325]","","",""
"sailing-trial","409","1527368","0.0-11.0-374.0","","","","false","","","","","","","","","","459.8999999985099","","278.6000000014901","","1","1","arrowleft","0","arrowright","[0.15,0.85,0.675,0.325]","","",""
"sailing-trial","410","1529882","0.0-11.0-375.0","","","","false","","","","","","","","","","null","","829.3000000007451","","1","1","null","null","arrowup","[0.15,0.85,0.675,0.325]","","",""
"sailing-trial","411","1534014","0.0-11.0-376.0","","","","false","","","","","","","","","","870.8000000007451","","386.69999999925494","","1","1","arrowleft","0","arrowright","[0.15,0.85,0.675,0.325]","","",""
"sailing-trial","412","1536516","0.0-11.0-377.0","","","","false","","","","","","","","","","null","","791.6999999992549","","3","1","null","null","arrowup","[0.15,0.85,0.675,0.325]","","",""
"sailing-trial","413","1539535","0.0-11.0-378.0","","","","false","","","","","","","","","","608.6000000014901","","183.59999999776483","","0","0","arrowleft","0","arrowleft","[0.15,0.85,0.675,0.325]","","",""
"sailing-trial","414","1541495","0.0-11.0-379.0","","","","false","","","","","","","","","","null","","738","","0","0","null","null","arrowup","[0.15,0.85,0.675,0.325]","","",""
"sailing-trial","415","1545081","0.0-11.0-380.0","","","","false","","","","","","","","","","486.9000000022352","","180.30000000074506","","1","1","arrowleft","0","arrowright","[0.15,0.85,0.675,0.325]","","",""
"sailing-trial","416","1546950","0.0-11.0-381.0","","","","false","","","","","","","","","","null","","659.5999999977648","","0","0","null","null","arrowup","[0.15,0.85,0.675,0.325]","","",""
"sailing-trial","417","1549941","0.0-11.0-382.0","","","","false","","","","","","","","","","483.20000000298023","","233.69999999925494","","1","0","arrowleft","0","arrowright","[0.325,0.675,0.85,0.15]","","",""
"sailing-trial","418","1551727","0.0-11.0-383.0","","","","false","","","","","","","","","","null","","656.1000000014901","","2","0","null","null","arrowup","[0.325,0.675,0.85,0.15]","","",""
"sailing-trial","419","1554430","0.0-11.0-384.0","","","","false","","","","","","","","","","397.3999999985099","","91.29999999701977","","3","0","arrowright","1","arrowright","[0.325,0.675,0.85,0.15]","","",""
"sailing-trial","420","1556478","0.0-11.0-385.0","","","","false","","","","","","","","","","null","","831.0999999977648","","0","0","null","null","arrowup","[0.325,0.675,0.85,0.15]","","",""
"sailing-trial","421","1560214","0.0-11.0-386.0","","","","false","","","","","","","","","","1211.5","","221.69999999925494","","3","0","arrowright","1","arrowright","[0.325,0.675,0.85,0.15]","","",""
"sailing-trial","422","1562333","0.0-11.0-387.0","","","","false","","","","","","","","","","null","","589.0999999977648","","1","1","null","null","arrowup","[0.325,0.675,0.85,0.15]","","",""
"sailing-trial","423","1565299","0.0-11.0-388.0","","","","false","","","","","","","","","","104","","500.29999999701977","","1","0","arrowleft","0","arrowright","[0.325,0.675,0.85,0.15]","","",""
"sailing-trial","424","1567698","0.0-11.0-389.0","","","","false","","","","","","","","","","null","","711.1999999992549","","3","1","null","null","arrowup","[0.325,0.675,0.85,0.15]","","",""
"sailing-trial","425","1570814","0.0-11.0-390.0","","","","false","","","","","","","","","","515.6999999992549","","18.599999997764826","","3","1","arrowright","1","arrowright","[0.325,0.675,0.85,0.15]","","",""
"sailing-trial","426","1574222","0.0-11.0-391.0","","","","false","","","","","","","","","","null","","2302.099999997765","","3","0","null","null","arrowup","[0.325,0.675,0.85,0.15]","","",""
"sailing-trial","427","1578366","0.0-11.0-392.0","","","","false","","","","","","","","","","1325.2000000029802","","87.80000000074506","","3","1","arrowright","1","arrowright","[0.325,0.675,0.85,0.15]","","",""
"sailing-trial","428","1580266","0.0-11.0-393.0","","","","false","","","","","","","","","","null","","671.1999999992549","","3","0","null","null","arrowup","[0.325,0.675,0.85,0.15]","","",""
"sailing-trial","429","1583216","0.0-11.0-394.0","","","","false","","","","","","","","","","437.30000000074506","","286.5999999977648","","2","0","arrowright","1","arrowleft","[0.325,0.675,0.85,0.15]","","",""
"sailing-trial","430","1585729","0.0-11.0-395.0","","","","false","","","","","","","","","","null","","1361.800000000745","","3","0","null","null","arrowup","[0.325,0.675,0.85,0.15]","","",""
"sailing-trial","431","1588290","0.0-11.0-396.0","","","","false","","","","","","","","","","320","","4.199999999254942","","1","0","arrowleft","0","arrowright","[0.325,0.675,0.85,0.15]","","",""
"sailing-trial","432","1590763","0.0-11.0-397.0","","","","false","","","","","","","","","","null","","798.8000000007451","","0","1","null","null","arrowup","[0.325,0.675,0.85,0.15]","","",""
"sailing-trial","433","1593509","0.0-11.0-398.0","","","","false","","","","","","","","","","116","","517.8000000007451","","0","0","arrowleft","0","arrowleft","[0.325,0.675,0.85,0.15]","","",""
"sailing-trial","434","1595275","0.0-11.0-399.0","","","","false","","","","","","","","","","null","","635.1999999992549","","1","0","null","null","arrowup","[0.325,0.675,0.85,0.15]","","",""
"instructions","435","1599231","0.0-12.0","","","","","","","","","","3955.800000000745","","","","","","","","","","","","","","","","[{""page_index"":0,""viewing_time"":3955.10000000149}]"
"survey-debrief","436","1618185","0.0-13.0","","","","","","","","","","18952.29999999702","","","","","","","","","","","","","","{""difficulty"":""4"",""fun"":""4"",""clarity"":""4"",""strategy"":""No"",""feedback"":""No""}","",""
