"trial_type","trial_index","time_elapsed","internal_node_id","value","metadata","success","timeout","failed_images","failed_audio","failed_video","browser_interaction","low_quality","rt","stimulus","response","button_pressed","island_rt","island_response","boat_rt","boat_response","boat","reward","island_key","island","boat_key","reward_probabilities","responses","num_errors","view_history"
"pavlovia","0","3","0.0-0.0","","","","","","","","","","","","","","","","","","","","","","","","","",""
"call-function","1","4","0.0-1.0","","{""task_version"":""sailing_part1_v1"",""task_condition"":""good"",""boats"":[""B"",""D"",""C"",""A""],""boats_demo"":[""E"",""F"",""G"",""H""],""islands"":[""A"",""B""],""subject_id"":""15372"",""age"":""14"",""gender"":""Male""}","","","","","","","","","","","","","","","","","","","","","","","",""
"preload","2","3603","0.0-2.0","","","true","false","[]","[]","[]","[{""event"":""fullscreenenter"",""trial"":3,""time"":6055}]","false","","","","","","","","","","","","","","","","",""
"fullscreen","3","7040","0.0-3.0","","","true","","","","","","","","","","","","","","","","","","","","","","",""
"audio-keyboard-response","4","8834","0.0-4.0-0.0","","","","","","","","","","1690.6666666666667","audio/beep_loop.wav"," ","","","","","","","","","","","","","",""
"audio-test","5","11193","0.0-4.0-1.0","","","","","","","","","","null","audio/turtle.mp3","","3","","","","","","","","","","","","",""
"audio-test","6","13193","0.0-4.0-2.0","","","","","","","","","","null","audio/shark.mp3","","2","","","","","","","","","","","","",""
"sailing-instructions","7","46478","0.0-5.0-0.0-0.0","","","","","","","","","","","","","","null","null","null","null","null","null","","","","","","",""
"sailing-trial","8","51228","0.0-5.0-0.0-1.0-0.0","","","","false","","","","","","","","","","3629.2000000476837","","null","","null","null","arrowleft","0","null","null","","",""
"sailing-trial","9","54266","0.0-5.0-0.0-1.0-1.0","","","","false","","","","","","","","","","1917.2999999523163","","null","","null","null","arrowright","1","null","null","","",""
"sailing-trial","10","58156","0.0-5.0-0.0-1.0-2.0","","","","false","","","","","","","","","","2789.5","","null","","null","null","arrowleft","0","null","null","","",""
"sailing-instructions","11","108425","0.0-5.0-0.0-2.0","","","","","","","","","","","","","","null","null","null","null","0","null","","","","","","",""
"sailing-trial","12","116841","0.0-5.0-0.0-3.0-0.0","","","","false","","","","","","","","","","null","","4024.600000023842","","2","1","null","null","arrowleft","[1,1,1,1]","","",""
"sailing-trial","13","120748","0.0-5.0-0.0-3.0-1.0","","","","false","","","","","","","","","","null","","1144.1000000238419","","3","1","null","null","arrowright","[1,1,1,1]","","",""
"sailing-trial","14","126416","0.0-5.0-0.0-3.0-2.0","","","","false","","","","","","","","","","null","","2143.399999976158","","3","0","null","null","arrowright","[0,0,0,0]","","",""
"sailing-instructions","15","133712","0.0-5.0-0.0-4.0","","","","","","","","","","","","","","null","null","null","null","null","null","","","","","","",""
"sailing-comprehension","16","150271","0.0-5.0-0.0-5.0","","","","","","","","","","13533.199999928474","","","","","","","","","","","","","","[""true"",""true"",""false"",""true""]","0",""
"sailing-instructions","17","214680","0.0-6.0-0.0-0.0","","","","","","","","","","","","","","null","null","null","null","null","null","","","","","","",""
"sailing-comprehension","18","228992","0.0-6.0-0.0-1.0","","","","","","","","","","12334.399999976158","","","","","","","","","","","","","","[""true"",""false"",""true""]","0",""
"sailing-instructions","19","242841","0.0-7.0-0.0-0.0","","","","","","","","","","","","","","null","null","null","null","null","null","","","","","","",""
"sailing-trial","20","250410","0.0-7.0-0.0-1.0-0.0","","","","false","","","","","","","","","","null","","5139.199999928474","","0","0","null","null","arrowup","[0.2,0.8,0.2,0.8]","","",""
"sailing-trial","21","253847","0.0-7.0-0.0-1.0-1.0","","","","false","","","","","","","","","","null","","1376.1999999284744","","1","1","null","null","arrowup","[0.2,0.8,0.2,0.8]","","",""
"sailing-trial","22","257023","0.0-7.0-0.0-1.0-2.0","","","","false","","","","","","","","","","null","","1815","","2","0","null","null","arrowup","[0.2,0.8,0.2,0.8]","","",""
"sailing-trial","23","260285","0.0-7.0-0.0-1.0-3.0","","","","false","","","","","","","","","","null","","1104.8999999761581","","3","1","null","null","arrowup","[0.2,0.8,0.2,0.8]","","",""
"sailing-comprehension","24","268301","0.0-7.0-0.0-2.0","","","","","","","","","","4791.399999976158","","","","","","","","","","","","","","[""false""]","0",""
"sailing-instructions","25","278517","0.0-8.0-0.0-0.0","","","","","","","","","","","","","","null","null","null","null","null","null","","","","","","",""
"sailing-comprehension","26","285386","0.0-8.0-0.0-1.0","","","","","","","","","","4702.200000047684","","","","","","","","","","","","","","[""true""]","0",""
"sailing-instructions","27","309198","0.0-9.0-0.0-0.0","","","","","","","","","","","","","","null","null","null","null","null","null","","","","","","",""
"sailing-trial","28","315164","0.0-9.0-0.0-1.0-0.0","","","","false","","","","","","","","","","1033.6999999284744","","959.5","","1","1","arrowleft","0","arrowright","[0.2,0.8,0.2,0.8]","","",""
"sailing-trial","29","319709","0.0-9.0-0.0-1.0-1.0","","","","false","","","","","","","","","","1051.5","","613.0999999046326","","1","1","arrowleft","0","arrowright","[0.2,0.8,0.2,0.8]","","",""
"sailing-trial","30","323229","0.0-9.0-0.0-1.0-2.0","","","","false","","","","","","","","","","null","","1362.2999999523163","","0","1","null","null","arrowup","[0.2,0.8,0.2,0.8]","","",""
"sailing-trial","31","327505","0.0-9.0-0.0-1.0-3.0","","","","false","","","","","","","","","","818.1999999284744","","150.89999997615814","","3","1","arrowright","1","arrowright","[0.2,0.8,0.2,0.8]","","",""
"sailing-trial","32","331076","0.0-9.0-0.0-1.0-4.0","","","","false","","","","","","","","","","null","","1371.7000000476837","","3","1","null","null","arrowup","[0.2,0.8,0.2,0.8]","","",""
"sailing-trial","33","335503","0.0-9.0-0.0-1.0-5.0","","","","false","","","","","","","","","","614.3999999761581","","847.1000000238419","","3","1","arrowright","1","arrowright","[0.2,0.8,0.2,0.8]","","",""
"sailing-instructions","34","363684","0.0-10.0","","","","","","","","","","","","","","null","null","null","null","null","null","","","","","","",""
"sailing-trial","35","370034","0.0-11.0-0.0","","","","false","","","","","","","","","","2262.2000000476837","","799.4000000953674","","2","1","arrowright","1","arrowleft","[0.325,0.675,0.15,0.85]","","",""
"sailing-trial","36","373077","0.0-11.0-1.0","","","","false","","","","","","","","","","null","","1019.7000000476837","","2","1","null","null","arrowup","[0.325,0.675,0.15,0.85]","","",""
"sailing-trial","37","377136","0.0-11.0-2.0","","","","false","","","","","","","","","","627.9000000953674","","210.60000002384186","","2","0","arrowright","1","arrowleft","[0.325,0.675,0.15,0.85]","","",""
"sailing-trial","38","379985","0.0-11.0-3.0","","","","false","","","","","","","","","","null","","981.7000000476837","","3","1","null","null","arrowup","[0.325,0.675,0.15,0.85]","","",""
"sailing-trial","39","383842","0.0-11.0-4.0","","","","false","","","","","","","","","","550.5","","376","","1","1","arrowleft","0","arrowright","[0.325,0.675,0.15,0.85]","","",""
"sailing-trial","40","386435","0.0-11.0-5.0","","","","false","","","","","","","","","","null","","1019.1000000238419","","0","0","null","null","arrowup","[0.325,0.675,0.15,0.85]","","",""
"sailing-trial","41","390662","0.0-11.0-6.0","","","","false","","","","","","","","","","519.8999999761581","","343.89999997615814","","1","0","arrowleft","0","arrowright","[0.325,0.675,0.15,0.85]","","",""
"sailing-trial","42","393803","0.0-11.0-7.0","","","","false","","","","","","","","","","null","","1275.2999999523163","","0","1","null","null","arrowup","[0.325,0.675,0.15,0.85]","","",""
"sailing-trial","43","398687","0.0-11.0-8.0","","","","false","","","","","","","","","","508.7000000476837","","371.7999999523163","","2","0","arrowright","1","arrowleft","[0.325,0.675,0.15,0.85]","","",""
"sailing-trial","44","401699","0.0-11.0-9.0","","","","false","","","","","","","","","","null","","1103.8999999761581","","1","1","null","null","arrowup","[0.325,0.675,0.15,0.85]","","",""
"sailing-trial","45","405893","0.0-11.0-10.0","","","","false","","","","","","","","","","650.1000000238419","","914.5999999046326","","1","0","arrowleft","0","arrowright","[0.325,0.675,0.15,0.85]","","",""
"sailing-trial","46","408875","0.0-11.0-11.0","","","","false","","","","","","","","","","null","","1059","","1","1","null","null","arrowup","[0.325,0.675,0.15,0.85]","","",""
"sailing-trial","47","411991","0.0-11.0-12.0","","","","false","","","","","","","","","","657.6000000238419","","188.89999997615814","","1","0","arrowleft","0","arrowright","[0.325,0.675,0.15,0.85]","","",""
"sailing-trial","48","414196","0.0-11.0-13.0","","","","false","","","","","","","","","","null","","936.6000000238419","","2","0","null","null","arrowup","[0.325,0.675,0.15,0.85]","","",""
"sailing-trial","49","417915","0.0-11.0-14.0","","","","false","","","","","","","","","","620.7999999523163","","311.60000002384186","","3","1","arrowright","1","arrowright","[0.325,0.675,0.15,0.85]","","",""
"sailing-trial","50","420277","0.0-11.0-15.0","","","","false","","","","","","","","","","null","","932.7999999523163","","0","0","null","null","arrowup","[0.325,0.675,0.15,0.85]","","",""
"sailing-trial","51","423900","0.0-11.0-16.0","","","","false","","","","","","","","","","483","","301.2000000476837","","3","1","arrowright","1","arrowright","[0.325,0.675,0.15,0.85]","","",""
"sailing-trial","52","426669","0.0-11.0-17.0","","","","false","","","","","","","","","","null","","897.1000000238419","","2","0","null","null","arrowup","[0.325,0.675,0.15,0.85]","","",""
"sailing-trial","53","429613","0.0-11.0-18.0","","","","false","","","","","","","","","","434.2999999523163","","191.39999997615814","","3","0","arrowright","1","arrowright","[0.85,0.15,0.675,0.325]","","",""
"sailing-trial","54","432350","0.0-11.0-19.0","","","","false","","","","","","","","","","null","","919.5","","2","1","null","null","arrowup","[0.85,0.15,0.675,0.325]","","",""
"sailing-trial","55","435658","0.0-11.0-20.0","","","","false","","","","","","","","","","427.6999999284744","","498.60000002384186","","3","0","arrowright","1","arrowright","[0.85,0.15,0.675,0.325]","","",""
"sailing-trial","56","438353","0.0-11.0-21.0","","","","false","","","","","","","","","","null","","1081.8999999761581","","3","0","null","null","arrowup","[0.85,0.15,0.675,0.325]","","",""
"sailing-trial","57","443115","0.0-11.0-22.0","","","","false","","","","","","","","","","1784","","189.30000007152557","","0","1","arrowleft","0","arrowleft","[0.85,0.15,0.675,0.325]","","",""
"sailing-trial","58","445547","0.0-11.0-23.0","","","","false","","","","","","","","","","null","","976.6999999284744","","3","0","null","null","arrowup","[0.85,0.15,0.675,0.325]","","",""
"sailing-trial","59","449253","0.0-11.0-24.0","","","","false","","","","","","","","","","525.5","","381.7999999523163","","0","1","arrowleft","0","arrowleft","[0.85,0.15,0.675,0.325]","","",""
"sailing-trial","60","451705","0.0-11.0-25.0","","","","false","","","","","","","","","","null","","883.2999999523163","","3","0","null","null","arrowup","[0.85,0.15,0.675,0.325]","","",""
"sailing-trial","61","455271","0.0-11.0-26.0","","","","false","","","","","","","","","","481.1999999284744","","327.39999997615814","","0","1","arrowleft","0","arrowleft","[0.85,0.15,0.675,0.325]","","",""
"sailing-trial","62","458151","0.0-11.0-27.0","","","","false","","","","","","","","","","null","","884.5","","1","0","null","null","arrowup","[0.85,0.15,0.675,0.325]","","",""
"sailing-trial","63","461475","0.0-11.0-28.0","","","","false","","","","","","","","","","408.59999990463257","","91.19999992847443","","0","1","arrowleft","0","arrowleft","[0.85,0.15,0.675,0.325]","","",""
"sailing-trial","64","465399","0.0-11.0-29.0","","","","false","","","","","","","","","","null","","1692.3999999761581","","0","1","null","null","arrowup","[0.85,0.15,0.675,0.325]","","",""
"sailing-trial","65","469697","0.0-11.0-30.0","","","","false","","","","","","","","","","582.2999999523163","","141.60000002384186","","0","0","arrowleft","0","arrowleft","[0.85,0.15,0.675,0.325]","","",""
"sailing-trial","66","472416","0.0-11.0-31.0","","","","false","","","","","","","","","","null","","1058.3999999761581","","1","0","null","null","arrowup","[0.85,0.15,0.675,0.325]","","",""
"sailing-trial","67","476432","0.0-11.0-32.0","","","","false","","","","","","","","","","642","","315.89999997615814","","0","1","arrowleft","0","arrowleft","[0.85,0.15,0.675,0.325]","","",""
"sailing-trial","68","479131","0.0-11.0-33.0","","","","false","","","","","","","","","","null","","764.8999999761581","","0","1","null","null","arrowup","[0.85,0.15,0.675,0.325]","","",""
"sailing-trial","69","482659","0.0-11.0-34.0","","","","false","","","","","","","","","","532.1000000238419","","411","","0","0","arrowleft","0","arrowleft","[0.325,0.675,0.15,0.85]","","",""
"sailing-trial","70","485419","0.0-11.0-35.0","","","","false","","","","","","","","","","null","","944.2999999523163","","3","1","null","null","arrowup","[0.325,0.675,0.15,0.85]","","",""
"sailing-trial","71","489627","0.0-11.0-36.0","","","","false","","","","","","","","","","790","","482.1999999284744","","3","1","arrowright","1","arrowright","[0.325,0.675,0.15,0.85]","","",""
"sailing-trial","72","492343","0.0-11.0-37.0","","","","false","","","","","","","","","","null","","880.1999999284744","","1","1","null","null","arrowup","[0.325,0.675,0.15,0.85]","","",""
"sailing-trial","73","496262","0.0-11.0-38.0","","","","false","","","","","","","","","","771","","641","","2","0","arrowright","1","arrowleft","[0.325,0.675,0.15,0.85]","","",""
"sailing-trial","74","498729","0.0-11.0-39.0","","","","false","","","","","","","","","","null","","781.5","","3","0","null","null","arrowup","[0.325,0.675,0.15,0.85]","","",""
"sailing-trial","75","502490","0.0-11.0-40.0","","","","false","","","","","","","","","","594.8999999761581","","381.2000000476837","","1","0","arrowleft","0","arrowright","[0.325,0.675,0.15,0.85]","","",""
"sailing-trial","76","504586","0.0-11.0-41.0","","","","false","","","","","","","","","","null","","641.9000000953674","","0","0","null","null","arrowup","[0.325,0.675,0.15,0.85]","","",""
"sailing-trial","77","508272","0.0-11.0-42.0","","","","false","","","","","","","","","","527.8999999761581","","285","","3","1","arrowright","1","arrowright","[0.325,0.675,0.15,0.85]","","",""
"sailing-trial","78","510414","0.0-11.0-43.0","","","","false","","","","","","","","","","null","","686.7000000476837","","3","0","null","null","arrowup","[0.325,0.675,0.15,0.85]","","",""
"sailing-trial","79","514383","0.0-11.0-44.0","","","","false","","","","","","","","","","573.8999999761581","","440.89999997615814","","2","0","arrowright","1","arrowleft","[0.325,0.675,0.15,0.85]","","",""
"sailing-trial","80","517041","0.0-11.0-45.0","","","","false","","","","","","","","","","null","","874.2000000476837","","1","1","null","null","arrowup","[0.325,0.675,0.15,0.85]","","",""
"sailing-trial","81","520630","0.0-11.0-46.0","","","","false","","","","","","","","","","565.0999999046326","","127.70000004768372","","1","1","arrowleft","0","arrowright","[0.325,0.675,0.15,0.85]","","",""
"sailing-trial","82","523317","0.0-11.0-47.0","","","","false","","","","","","","","","","null","","908.5","","1","0","null","null","arrowup","[0.325,0.675,0.15,0.85]","","",""
"sailing-trial","83","527974","0.0-11.0-48.0","","","","false","","","","","","","","","","640","","477","","1","1","arrowleft","0","arrowright","[0.325,0.675,0.15,0.85]","","",""
"sailing-trial","84","530974","0.0-11.0-49.0","","","","false","","","","","","","","","","null","","978.8999999761581","","0","1","null","null","arrowup","[0.325,0.675,0.15,0.85]","","",""
"sailing-trial","85","535922","0.0-11.0-50.0","","","","false","","","","","","","","","","565.3000000715256","","1489.7999999523163","","0","1","arrowleft","0","arrowleft","[0.85,0.15,0.675,0.325]","","",""
"sailing-trial","86","538428","0.0-11.0-51.0","","","","false","","","","","","","","","","null","","1028.2999999523163","","1","0","null","null","arrowup","[0.85,0.15,0.675,0.325]","","",""
"sailing-trial","87","542244","0.0-11.0-52.0","","","","false","","","","","","","","","","478.7999999523163","","397.6999999284744","","0","1","arrowleft","0","arrowleft","[0.85,0.15,0.675,0.325]","","",""
"sailing-trial","88","546566","0.0-11.0-53.0","","","","false","","","","","","","","","","null","","2822.399999976158","","1","0","null","null","arrowup","[0.85,0.15,0.675,0.325]","","",""
"sailing-trial","89","550292","0.0-11.0-54.0","","","","false","","","","","","","","","","687.4000000953674","","249.79999995231628","","0","1","arrowleft","0","arrowleft","[0.85,0.15,0.675,0.325]","","",""
"sailing-trial","90","552902","0.0-11.0-55.0","","","","false","","","","","","","","","","null","","900.3999999761581","","1","0","null","null","arrowup","[0.85,0.15,0.675,0.325]","","",""
"sailing-trial","91","556713","0.0-11.0-56.0","","","","false","","","","","","","","","","524.7999999523163","","349.6999999284744","","0","1","arrowleft","0","arrowleft","[0.85,0.15,0.675,0.325]","","",""
"sailing-trial","92","559221","0.0-11.0-57.0","","","","false","","","","","","","","","","null","","846.0999999046326","","3","0","null","null","arrowup","[0.85,0.15,0.675,0.325]","","",""
"sailing-trial","93","563068","0.0-11.0-58.0","","","","false","","","","","","","","","","548.1999999284744","","440.59999990463257","","0","1","arrowleft","0","arrowleft","[0.85,0.15,0.675,0.325]","","",""
"sailing-trial","94","565785","0.0-11.0-59.0","","","","false","","","","","","","","","","null","","934.6000000238419","","0","1","null","null","arrowup","[0.85,0.15,0.675,0.325]","","",""
"sailing-trial","95","569540","0.0-11.0-60.0","","","","false","","","","","","","","","","520.7000000476837","","377","","0","1","arrowleft","0","arrowleft","[0.85,0.15,0.675,0.325]","","",""
"sailing-trial","96","573270","0.0-11.0-61.0","","","","false","","","","","","","","","","null","","889","","1","0","null","null","arrowup","[0.85,0.15,0.675,0.325]","","",""
"sailing-trial","97","577321","0.0-11.0-62.0","","","","false","","","","","","","","","","595.3999999761581","","203.70000004768372","","0","1","arrowleft","0","arrowleft","[0.85,0.15,0.675,0.325]","","",""
"sailing-trial","98","579943","0.0-11.0-63.0","","","","false","","","","","","","","","","null","","866.8999999761581","","3","0","null","null","arrowup","[0.85,0.15,0.675,0.325]","","",""
"sailing-trial","99","583926","0.0-11.0-64.0","","","","false","","","","","","","","","","711","","477.2000000476837","","0","1","arrowleft","0","arrowleft","[0.85,0.15,0.675,0.325]","","",""
"sailing-trial","100","586336","0.0-11.0-65.0","","","","false","","","","","","","","","","null","","979.3000000715256","","3","0","null","null","arrowup","[0.85,0.15,0.675,0.325]","","",""
"sailing-trial","101","589727","0.0-11.0-66.0","","","","false","","","","","","","","","","524.5","","42.5","","0","1","arrowleft","0","arrowleft","[0.675,0.325,0.85,0.15]","","",""
"sailing-trial","102","592494","0.0-11.0-67.0","","","","false","","","","","","","","","","null","","925.3999999761581","","0","1","null","null","arrowup","[0.675,0.325,0.85,0.15]","","",""
"sailing-trial","103","596252","0.0-11.0-68.0","","","","false","","","","","","","","","","853.3999999761581","","394.2000000476837","","0","0","arrowleft","0","arrowleft","[0.675,0.325,0.85,0.15]","","",""
"sailing-trial","104","598600","0.0-11.0-69.0","","","","false","","","","","","","","","","null","","871.7999999523163","","1","0","null","null","arrowup","[0.675,0.325,0.85,0.15]","","",""
"sailing-trial","105","602337","0.0-11.0-70.0","","","","false","","","","","","","","","","503.60000002384186","","303.10000002384186","","2","1","arrowright","1","arrowleft","[0.675,0.325,0.85,0.15]","","",""
"sailing-trial","106","605079","0.0-11.0-71.0","","","","false","","","","","","","","","","null","","842","","1","0","null","null","arrowup","[0.675,0.325,0.85,0.15]","","",""
"sailing-trial","107","608658","0.0-11.0-72.0","","","","false","","","","","","","","","","483.2000000476837","","262.2000000476837","","2","1","arrowright","1","arrowleft","[0.675,0.325,0.85,0.15]","","",""
"sailing-trial","108","611408","0.0-11.0-73.0","","","","false","","","","","","","","","","null","","863.7999999523163","","0","1","null","null","arrowup","[0.675,0.325,0.85,0.15]","","",""
"sailing-trial","109","615114","0.0-11.0-74.0","","","","false","","","","","","","","","","556.3000000715256","","306.7999999523163","","2","1","arrowright","1","arrowleft","[0.675,0.325,0.85,0.15]","","",""
"sailing-trial","110","617778","0.0-11.0-75.0","","","","false","","","","","","","","","","null","","832.7999999523163","","1","1","null","null","arrowup","[0.675,0.325,0.85,0.15]","","",""
"sailing-trial","111","621251","0.0-11.0-76.0","","","","false","","","","","","","","","","588.5","","110.80000007152557","","2","1","arrowright","1","arrowleft","[0.675,0.325,0.85,0.15]","","",""
"sailing-trial","112","624369","0.0-11.0-77.0","","","","false","","","","","","","","","","null","","1352.3999999761581","","2","1","null","null","arrowup","[0.675,0.325,0.85,0.15]","","",""
"sailing-trial","113","627957","0.0-11.0-78.0","","","","false","","","","","","","","","","515.2000000476837","","52.10000002384186","","2","1","arrowright","1","arrowleft","[0.675,0.325,0.85,0.15]","","",""
"sailing-trial","114","630690","0.0-11.0-79.0","","","","false","","","","","","","","","","null","","1016.7000000476837","","2","1","null","null","arrowup","[0.675,0.325,0.85,0.15]","","",""
"sailing-trial","115","634513","0.0-11.0-80.0","","","","false","","","","","","","","","","611.8999999761581","","464.2000000476837","","2","1","arrowright","1","arrowleft","[0.675,0.325,0.85,0.15]","","",""
"sailing-trial","116","637229","0.0-11.0-81.0","","","","false","","","","","","","","","","null","","924.5","","2","1","null","null","arrowup","[0.675,0.325,0.85,0.15]","","",""
"sailing-trial","117","640404","0.0-11.0-82.0","","","","false","","","","","","","","","","700.5","","282.60000002384186","","2","0","arrowright","1","arrowleft","[0.675,0.325,0.85,0.15]","","",""
"sailing-trial","118","643772","0.0-11.0-83.0","","","","false","","","","","","","","","","null","","2006.2000000476837","","0","0","null","null","arrowup","[0.675,0.325,0.85,0.15]","","",""
"sailing-trial","119","647823","0.0-11.0-84.0","","","","false","","","","","","","","","","1621","","38.699999928474426","","2","0","arrowright","1","arrowleft","[0.325,0.675,0.15,0.85]","","",""
"sailing-trial","120","650011","0.0-11.0-85.0","","","","false","","","","","","","","","","null","","850.2000000476837","","0","0","null","null","arrowup","[0.325,0.675,0.15,0.85]","","",""
"sailing-trial","121","653745","0.0-11.0-86.0","","","","false","","","","","","","","","","757","","6.299999952316284","","1","1","arrowleft","0","arrowright","[0.325,0.675,0.15,0.85]","","",""
"sailing-trial","122","656981","0.0-11.0-87.0","","","","false","","","","","","","","","","null","","884.2000000476837","","3","1","null","null","arrowup","[0.325,0.675,0.15,0.85]","","",""
"sailing-trial","123","660636","0.0-11.0-88.0","","","","false","","","","","","","","","","693.3000000715256","","173","","3","1","arrowright","1","arrowright","[0.325,0.675,0.15,0.85]","","",""
"sailing-trial","124","663295","0.0-11.0-89.0","","","","false","","","","","","","","","","null","","1459.8000000715256","","2","0","null","null","arrowup","[0.325,0.675,0.15,0.85]","","",""
"sailing-trial","125","665964","0.0-11.0-90.0","","","","false","","","","","","","","","","482.10000002384186","","110.10000002384186","","3","0","arrowright","1","arrowright","[0.325,0.675,0.15,0.85]","","",""
"sailing-trial","126","668033","0.0-11.0-91.0","","","","false","","","","","","","","","","null","","916.3000000715256","","0","0","null","null","arrowup","[0.325,0.675,0.15,0.85]","","",""
"sailing-trial","127","671440","0.0-11.0-92.0","","","","false","","","","","","","","","","571.2999999523163","","289.09999990463257","","1","0","arrowleft","0","arrowright","[0.325,0.675,0.15,0.85]","","",""
"sailing-trial","128","673590","0.0-11.0-93.0","","","","false","","","","","","","","","","null","","834.6000000238419","","2","0","null","null","arrowup","[0.325,0.675,0.15,0.85]","","",""
"sailing-trial","129","677185","0.0-11.0-94.0","","","","false","","","","","","","","","","551.6000000238419","","328.6999999284744","","3","1","arrowright","1","arrowright","[0.325,0.675,0.15,0.85]","","",""
"sailing-trial","130","679571","0.0-11.0-95.0","","","","false","","","","","","","","","","null","","840","","2","0","null","null","arrowup","[0.325,0.675,0.15,0.85]","","",""
"sailing-trial","131","683205","0.0-11.0-96.0","","","","false","","","","","","","","","","527.7000000476837","","301.7999999523163","","3","1","arrowright","1","arrowright","[0.325,0.675,0.15,0.85]","","",""
"sailing-trial","132","686156","0.0-11.0-97.0","","","","false","","","","","","","","","","null","","1133.2999999523163","","3","1","null","null","arrowup","[0.325,0.675,0.15,0.85]","","",""
"sailing-trial","133","690213","0.0-11.0-98.0","","","","false","","","","","","","","","","672.6999999284744","","239.69999992847443","","3","1","arrowright","1","arrowright","[0.325,0.675,0.15,0.85]","","",""
"sailing-trial","134","692645","0.0-11.0-99.0","","","","false","","","","","","","","","","null","","954.3999999761581","","0","0","null","null","arrowup","[0.325,0.675,0.15,0.85]","","",""
"sailing-trial","135","696634","0.0-11.0-100.0","","","","false","","","","","","","","","","989.7999999523163","","205.39999997615814","","3","1","arrowright","1","arrowright","[0.325,0.675,0.15,0.85]","","",""
"sailing-trial","136","699347","0.0-11.0-101.0","","","","false","","","","","","","","","","null","","865.8999999761581","","2","0","null","null","arrowup","[0.325,0.675,0.15,0.85]","","",""
"sailing-trial","137","702990","0.0-11.0-102.0","","","","false","","","","","","","","","","597.3999999761581","","334.39999997615814","","3","1","arrowright","1","arrowright","[0.325,0.675,0.15,0.85]","","",""
"sailing-trial","138","705019","0.0-11.0-103.0","","","","false","","","","","","","","","","null","","875.7999999523163","","2","0","null","null","arrowup","[0.325,0.675,0.15,0.85]","","",""
"sailing-trial","139","707841","0.0-11.0-104.0","","","","false","","","","","","","","","","459.2999999523163","","5.700000047683716","","3","0","arrowright","1","arrowright","[0.325,0.675,0.15,0.85]","","",""
"sailing-trial","140","710191","0.0-11.0-105.0","","","","false","","","","","","","","","","null","","1081.9000000953674","","1","0","null","null","arrowup","[0.325,0.675,0.15,0.85]","","",""
"sailing-trial","141","713722","0.0-11.0-106.0","","","","false","","","","","","","","","","482.89999997615814","","401.89999997615814","","3","0","arrowright","1","arrowright","[0.675,0.325,0.85,0.15]","","",""
"sailing-trial","142","716790","0.0-11.0-107.0","","","","false","","","","","","","","","","null","","873.6000000238419","","1","1","null","null","arrowup","[0.675,0.325,0.85,0.15]","","",""
"sailing-trial","143","720203","0.0-11.0-108.0","","","","false","","","","","","","","","","765.8999999761581","","432.39999997615814","","3","0","arrowright","1","arrowright","[0.675,0.325,0.85,0.15]","","",""
"sailing-trial","144","722878","0.0-11.0-109.0","","","","false","","","","","","","","","","null","","904.1999999284744","","1","1","null","null","arrowup","[0.675,0.325,0.85,0.15]","","",""
"sailing-trial","145","727893","0.0-11.0-110.0","","","","false","","","","","","","","","","1973.8999999761581","","278.5","","0","0","arrowleft","0","arrowleft","[0.675,0.325,0.85,0.15]","","",""
"sailing-trial","146","730081","0.0-11.0-111.0","","","","false","","","","","","","","","","null","","896","","0","0","null","null","arrowup","[0.675,0.325,0.85,0.15]","","",""
"sailing-trial","147","733961","0.0-11.0-112.0","","","","false","","","","","","","","","","828","","211.89999997615814","","2","1","arrowright","1","arrowleft","[0.675,0.325,0.85,0.15]","","",""
"sailing-trial","148","736899","0.0-11.0-113.0","","","","false","","","","","","","","","","null","","930.7999999523163","","3","0","null","null","arrowup","[0.675,0.325,0.85,0.15]","","",""
"sailing-trial","149","740533","0.0-11.0-114.0","","","","false","","","","","","","","","","621.2999999523163","","215.60000002384186","","2","1","arrowright","1","arrowleft","[0.675,0.325,0.85,0.15]","","",""
"sailing-trial","150","742965","0.0-11.0-115.0","","","","false","","","","","","","","","","null","","1093.7000000476837","","3","0","null","null","arrowup","[0.675,0.325,0.85,0.15]","","",""
"sailing-trial","151","746686","0.0-11.0-116.0","","","","false","","","","","","","","","","620.3999999761581","","280.7999999523163","","2","1","arrowright","1","arrowleft","[0.675,0.325,0.85,0.15]","","",""
"sailing-trial","152","749653","0.0-11.0-117.0","","","","false","","","","","","","","","","null","","1043.3999999761581","","1","1","null","null","arrowup","[0.675,0.325,0.85,0.15]","","",""
"sailing-trial","153","753074","0.0-11.0-118.0","","","","false","","","","","","","","","","619","","231.20000004768372","","2","1","arrowright","1","arrowleft","[0.675,0.325,0.85,0.15]","","",""
"sailing-trial","154","755245","0.0-11.0-119.0","","","","false","","","","","","","","","","null","","857.2999999523163","","3","0","null","null","arrowup","[0.675,0.325,0.85,0.15]","","",""
"sailing-trial","155","758909","0.0-11.0-120.0","","","","false","","","","","","","","","","668.2999999523163","","259.60000002384186","","2","1","arrowright","1","arrowleft","[0.675,0.325,0.85,0.15]","","",""
"sailing-trial","156","760862","0.0-11.0-121.0","","","","false","","","","","","","","","","null","","821.5","","1","0","null","null","arrowup","[0.675,0.325,0.85,0.15]","","",""
"sailing-trial","157","764912","0.0-11.0-122.0","","","","false","","","","","","","","","","550.2000000476837","","845.8999999761581","","2","1","arrowright","1","arrowleft","[0.85,0.15,0.675,0.325]","","",""
"sailing-trial","158","766855","0.0-11.0-123.0","","","","false","","","","","","","","","","null","","720.4000000953674","","0","0","null","null","arrowup","[0.85,0.15,0.675,0.325]","","",""
"sailing-trial","159","770412","0.0-11.0-124.0","","","","false","","","","","","","","","","596.5","","357.2999999523163","","2","1","arrowright","1","arrowleft","[0.85,0.15,0.675,0.325]","","",""
"sailing-trial","160","773479","0.0-11.0-125.0","","","","false","","","","","","","","","","null","","1253.3999999761581","","1","1","null","null","arrowup","[0.85,0.15,0.675,0.325]","","",""
"sailing-trial","161","777957","0.0-11.0-126.0","","","","false","","","","","","","","","","1209.0999999046326","","523.7999999523163","","2","1","arrowright","1","arrowleft","[0.85,0.15,0.675,0.325]","","",""
"sailing-trial","162","780945","0.0-11.0-127.0","","","","false","","","","","","","","","","null","","1698.1000000238419","","2","0","null","null","arrowup","[0.85,0.15,0.675,0.325]","","",""
"sailing-trial","163","785199","0.0-11.0-128.0","","","","false","","","","","","","","","","874.3999999761581","","192.39999997615814","","2","1","arrowright","1","arrowleft","[0.85,0.15,0.675,0.325]","","",""
"sailing-trial","164","788821","0.0-11.0-129.0","","","","false","","","","","","","","","","null","","1733.3999999761581","","3","1","null","null","arrowup","[0.85,0.15,0.675,0.325]","","",""
"sailing-trial","165","792546","0.0-11.0-130.0","","","","false","","","","","","","","","","716.8000000715256","","6.299999952316284","","2","1","arrowright","1","arrowleft","[0.85,0.15,0.675,0.325]","","",""
"sailing-trial","166","795506","0.0-11.0-131.0","","","","false","","","","","","","","","","null","","1690.2000000476837","","1","0","null","null","arrowup","[0.85,0.15,0.675,0.325]","","",""
"sailing-trial","167","799770","0.0-11.0-132.0","","","","false","","","","","","","","","","1059.5999999046326","","36.39999997615814","","2","1","arrowright","1","arrowleft","[0.85,0.15,0.675,0.325]","","",""
"sailing-trial","168","802974","0.0-11.0-133.0","","","","false","","","","","","","","","","null","","1409.2999999523163","","0","1","null","null","arrowup","[0.85,0.15,0.675,0.325]","","",""
"sailing-trial","169","807048","0.0-11.0-134.0","","","","false","","","","","","","","","","881.2999999523163","","242.39999997615814","","2","1","arrowright","1","arrowleft","[0.85,0.15,0.675,0.325]","","",""
"sailing-trial","170","809814","0.0-11.0-135.0","","","","false","","","","","","","","","","null","","928.6000000238419","","0","1","null","null","arrowup","[0.85,0.15,0.675,0.325]","","",""
"sailing-trial","171","814862","0.0-11.0-136.0","","","","false","","","","","","","","","","2131.0999999046326","","118.19999992847443","","2","1","arrowright","1","arrowleft","[0.85,0.15,0.675,0.325]","","",""
"sailing-trial","172","817489","0.0-11.0-137.0","","","","false","","","","","","","","","","null","","1172.8999999761581","","3","0","null","null","arrowup","[0.85,0.15,0.675,0.325]","","",""
"sailing-trial","173","821368","0.0-11.0-138.0","","","","false","","","","","","","","","","643.3999999761581","","55.60000002384186","","2","1","arrowright","1","arrowleft","[0.675,0.325,0.85,0.15]","","",""
"sailing-trial","174","825010","0.0-11.0-139.0","","","","false","","","","","","","","","","null","","2328.5","","0","0","null","null","arrowup","[0.675,0.325,0.85,0.15]","","",""
"sailing-trial","175","828477","0.0-11.0-140.0","","","","false","","","","","","","","","","481.89999997615814","","233.19999992847443","","2","1","arrowright","1","arrowleft","[0.675,0.325,0.85,0.15]","","",""
"sailing-trial","176","831515","0.0-11.0-141.0","","","","false","","","","","","","","","","null","","656.0999999046326","","3","0","null","null","arrowup","[0.675,0.325,0.85,0.15]","","",""
"sailing-trial","177","834312","0.0-11.0-142.0","","","","false","","","","","","","","","","527.8999999761581","","76.5","","2","0","arrowright","1","arrowleft","[0.675,0.325,0.85,0.15]","","",""
"sailing-trial","178","836347","0.0-11.0-143.0","","","","false","","","","","","","","","","null","","858.4000000953674","","3","0","null","null","arrowup","[0.675,0.325,0.85,0.15]","","",""
"sailing-trial","179","840482","0.0-11.0-144.0","","","","false","","","","","","","","","","550.8999999761581","","783.1000000238419","","2","1","arrowright","1","arrowleft","[0.675,0.325,0.85,0.15]","","",""
"sailing-trial","180","842640","0.0-11.0-145.0","","","","false","","","","","","","","","","null","","889.7000000476837","","3","0","null","null","arrowup","[0.675,0.325,0.85,0.15]","","",""
"sailing-trial","181","845516","0.0-11.0-146.0","","","","false","","","","","","","","","","529.1999999284744","","214.29999995231628","","2","0","arrowright","1","arrowleft","[0.675,0.325,0.85,0.15]","","",""
"sailing-trial","182","848127","0.0-11.0-147.0","","","","false","","","","","","","","","","null","","879.8000000715256","","1","1","null","null","arrowup","[0.675,0.325,0.85,0.15]","","",""
"sailing-trial","183","851543","0.0-11.0-148.0","","","","false","","","","","","","","","","933.4000000953674","","172.30000007152557","","1","0","arrowleft","0","arrowright","[0.675,0.325,0.85,0.15]","","",""
"sailing-trial","184","853707","0.0-11.0-149.0","","","","false","","","","","","","","","","null","","825.1999999284744","","3","0","null","null","arrowup","[0.675,0.325,0.85,0.15]","","",""
"sailing-trial","185","857197","0.0-11.0-150.0","","","","false","","","","","","","","","","640.4000000953674","","505.3000000715256","","1","0","arrowleft","0","arrowright","[0.675,0.325,0.85,0.15]","","",""
"sailing-trial","186","859501","0.0-11.0-151.0","","","","false","","","","","","","","","","null","","871.5","","1","0","null","null","arrowup","[0.675,0.325,0.85,0.15]","","",""
"sailing-trial","187","862721","0.0-11.0-152.0","","","","false","","","","","","","","","","616.5","","214.10000002384186","","0","0","arrowleft","0","arrowleft","[0.675,0.325,0.85,0.15]","","",""
"sailing-trial","188","865549","0.0-11.0-153.0","","","","false","","","","","","","","","","null","","810.8000000715256","","1","1","null","null","arrowup","[0.675,0.325,0.85,0.15]","","",""
"sailing-trial","189","869607","0.0-11.0-154.0","","","","false","","","","","","","","","","519.2000000476837","","185.80000007152557","","2","1","arrowright","1","arrowleft","[0.85,0.15,0.675,0.325]","","",""
"sailing-trial","190","871791","0.0-11.0-155.0","","","","false","","","","","","","","","","null","","912.4000000953674","","2","0","null","null","arrowup","[0.85,0.15,0.675,0.325]","","",""
"sailing-trial","191","874988","0.0-11.0-156.0","","","","false","","","","","","","","","","386.40000009536743","","287.5","","3","0","arrowright","1","arrowright","[0.85,0.15,0.675,0.325]","","",""
"sailing-trial","192","877688","0.0-11.0-157.0","","","","false","","","","","","","","","","null","","847.8999999761581","","2","1","null","null","arrowup","[0.85,0.15,0.675,0.325]","","",""
"sailing-trial","193","881579","0.0-11.0-158.0","","","","false","","","","","","","","","","681.3000000715256","","333.7000000476837","","2","1","arrowright","1","arrowleft","[0.85,0.15,0.675,0.325]","","",""
"sailing-trial","194","884278","0.0-11.0-159.0","","","","false","","","","","","","","","","null","","879.3999999761581","","2","1","null","null","arrowup","[0.85,0.15,0.675,0.325]","","",""
"sailing-trial","195","888236","0.0-11.0-160.0","","","","false","","","","","","","","","","924.2000000476837","","211.20000004768372","","2","1","arrowright","1","arrowleft","[0.85,0.15,0.675,0.325]","","",""
"sailing-trial","196","890936","0.0-11.0-161.0","","","","false","","","","","","","","","","null","","833.6000000238419","","0","1","null","null","arrowup","[0.85,0.15,0.675,0.325]","","",""
"sailing-trial","197","894275","0.0-11.0-162.0","","","","false","","","","","","","","","","716.0999999046326","","267.90000009536743","","2","0","arrowright","1","arrowleft","[0.85,0.15,0.675,0.325]","","",""
"sailing-trial","198","896954","0.0-11.0-163.0","","","","false","","","","","","","","","","null","","848.3000000715256","","1","1","null","null","arrowup","[0.85,0.15,0.675,0.325]","","",""
"sailing-trial","199","900653","0.0-11.0-164.0","","","","false","","","","","","","","","","891.6000000238419","","258.2999999523163","","2","0","arrowright","1","arrowleft","[0.85,0.15,0.675,0.325]","","",""
"sailing-trial","200","903913","0.0-11.0-165.0","","","","false","","","","","","","","","","null","","1080.5","","3","0","null","null","arrowup","[0.85,0.15,0.675,0.325]","","",""
"sailing-trial","201","907416","0.0-11.0-166.0","","","","false","","","","","","","","","","547.5","","171.70000004768372","","1","1","arrowleft","0","arrowright","[0.85,0.15,0.675,0.325]","","",""
"sailing-trial","202","910015","0.0-11.0-167.0","","","","false","","","","","","","","","","null","","811.3000000715256","","0","1","null","null","arrowup","[0.85,0.15,0.675,0.325]","","",""
"sailing-trial","203","912987","0.0-11.0-168.0","","","","false","","","","","","","","","","561.3000000715256","","122.20000004768372","","1","0","arrowleft","0","arrowright","[0.85,0.15,0.675,0.325]","","",""
"sailing-trial","204","915633","0.0-11.0-169.0","","","","false","","","","","","","","","","null","","803.9000000953674","","2","1","null","null","arrowup","[0.85,0.15,0.675,0.325]","","",""
"sailing-trial","205","919439","0.0-11.0-170.0","","","","false","","","","","","","","","","667.7000000476837","","271.2000000476837","","0","1","arrowleft","0","arrowleft","[0.85,0.15,0.675,0.325]","","",""
"sailing-trial","206","921870","0.0-11.0-171.0","","","","false","","","","","","","","","","null","","883.6000000238419","","2","0","null","null","arrowup","[0.85,0.15,0.675,0.325]","","",""
"sailing-trial","207","925525","0.0-11.0-172.0","","","","false","","","","","","","","","","618.3999999761581","","245.89999997615814","","0","1","arrowleft","0","arrowleft","[0.675,0.325,0.85,0.15]","","",""
"sailing-trial","208","930064","0.0-11.0-173.0","","","","false","","","","","","","","","","null","","3225.2999999523163","","3","0","null","null","arrowup","[0.675,0.325,0.85,0.15]","","",""
"sailing-trial","209","933570","0.0-11.0-174.0","","","","false","","","","","","","","","","594.8999999761581","","523.2000000476837","","0","0","arrowleft","0","arrowleft","[0.675,0.325,0.85,0.15]","","",""
"sailing-trial","210","935528","0.0-11.0-175.0","","","","false","","","","","","","","","","null","","873.7000000476837","","1","0","null","null","arrowup","[0.675,0.325,0.85,0.15]","","",""
"sailing-trial","211","938855","0.0-11.0-176.0","","","","false","","","","","","","","","","480.5","","227","","0","1","arrowleft","0","arrowleft","[0.675,0.325,0.85,0.15]","","",""
"sailing-trial","212","941270","0.0-11.0-177.0","","","","false","","","","","","","","","","null","","847.2000000476837","","2","1","null","null","arrowup","[0.675,0.325,0.85,0.15]","","",""
"sailing-trial","213","943953","0.0-11.0-178.0","","","","false","","","","","","","","","","67.89999997615814","","33.59999990463257","","1","1","arrowleft","0","arrowright","[0.675,0.325,0.85,0.15]","","",""
"sailing-trial","214","948032","0.0-11.0-179.0","","","","false","","","","","","","","","","null","","1079.1999999284744","","1","0","null","null","arrowup","[0.675,0.325,0.85,0.15]","","",""
"sailing-trial","215","950699","0.0-11.0-180.0","","","","false","","","","","","","","","","80.20000004768372","","193.60000002384186","","3","0","arrowright","1","arrowright","[0.675,0.325,0.85,0.15]","","",""
"sailing-trial","216","952501","0.0-11.0-181.0","","","","false","","","","","","","","","","null","","766.2000000476837","","3","0","null","null","arrowup","[0.675,0.325,0.85,0.15]","","",""
"sailing-trial","217","956076","0.0-11.0-182.0","","","","false","","","","","","","","","","32.10000002384186","","185.39999997615814","","2","1","arrowright","1","arrowleft","[0.675,0.325,0.85,0.15]","","",""
"sailing-trial","218","959279","0.0-11.0-183.0","","","","false","","","","","","","","","","null","","1364.8000000715256","","1","1","null","null","arrowup","[0.675,0.325,0.85,0.15]","","",""
"sailing-trial","219","961539","0.0-11.0-184.0","","","","false","","","","","","","","","","16","","134.79999995231628","","2","0","arrowright","1","arrowleft","[0.675,0.325,0.85,0.15]","","",""
"sailing-trial","220","964544","0.0-11.0-185.0","","","","false","","","","","","","","","","null","","1396.6000000238419","","1","1","null","null","arrowup","[0.675,0.325,0.85,0.15]","","",""
"sailing-trial","221","967795","0.0-11.0-186.0","","","","false","","","","","","","","","","421","","118.79999995231628","","1","1","arrowleft","0","arrowright","[0.675,0.325,0.85,0.15]","","",""
"sailing-trial","222","969797","0.0-11.0-187.0","","","","false","","","","","","","","","","null","","809.3999999761581","","2","0","null","null","arrowup","[0.675,0.325,0.85,0.15]","","",""
"sailing-trial","223","972531","0.0-11.0-188.0","","","","false","","","","","","","","","","523","","3.100000023841858","","1","0","arrowleft","0","arrowright","[0.675,0.325,0.85,0.15]","","",""
"sailing-trial","224","974548","0.0-11.0-189.0","","","","false","","","","","","","","","","null","","1006.1000000238419","","0","0","null","null","arrowup","[0.675,0.325,0.85,0.15]","","",""
"sailing-trial","225","977362","0.0-11.0-190.0","","","","false","","","","","","","","","","313.39999997615814","","31.200000047683716","","1","0","arrowleft","0","arrowright","[0.675,0.325,0.85,0.15]","","",""
"sailing-trial","226","979802","0.0-11.0-191.0","","","","false","","","","","","","","","","null","","577.2000000476837","","0","1","null","null","arrowup","[0.675,0.325,0.85,0.15]","","",""
"sailing-trial","227","982920","0.0-11.0-192.0","","","","false","","","","","","","","","","273.2999999523163","","225.60000002384186","","2","1","arrowright","1","arrowleft","[0.85,0.15,0.675,0.325]","","",""
"sailing-trial","228","986375","0.0-11.0-193.0","","","","false","","","","","","","","","","null","","1000.6000000238419","","0","1","null","null","arrowup","[0.85,0.15,0.675,0.325]","","",""
"sailing-trial","229","989744","0.0-11.0-194.0","","","","false","","","","","","","","","","430.1999999284744","","393.39999997615814","","2","1","arrowright","1","arrowleft","[0.85,0.15,0.675,0.325]","","",""
"sailing-trial","230","991326","0.0-11.0-195.0","","","","false","","","","","","","","","","null","","520.1000000238419","","3","0","null","null","arrowup","[0.85,0.15,0.675,0.325]","","",""
"sailing-trial","231","994976","0.0-11.0-196.0","","","","false","","","","","","","","","","820.2999999523163","","268.60000002384186","","2","1","arrowright","1","arrowleft","[0.85,0.15,0.675,0.325]","","",""
"sailing-trial","232","996754","0.0-11.0-197.0","","","","false","","","","","","","","","","null","","723.7000000476837","","3","0","null","null","arrowup","[0.85,0.15,0.675,0.325]","","",""
"sailing-trial","233","999491","0.0-11.0-198.0","","","","false","","","","","","","","","","314","","223.79999995231628","","2","0","arrowright","1","arrowleft","[0.85,0.15,0.675,0.325]","","",""
"sailing-trial","234","1001161","0.0-11.0-199.0","","","","false","","","","","","","","","","null","","88","","1","0","null","null","arrowup","[0.85,0.15,0.675,0.325]","","",""
"sailing-trial","235","1004600","0.0-11.0-200.0","","","","false","","","","","","","","","","295.2000000476837","","248.20000004768372","","2","1","arrowright","1","arrowleft","[0.85,0.15,0.675,0.325]","","",""
"sailing-trial","236","1007333","0.0-11.0-201.0","","","","false","","","","","","","","","","null","","534.1000000238419","","0","1","null","null","arrowup","[0.85,0.15,0.675,0.325]","","",""
"sailing-trial","237","1010334","0.0-11.0-202.0","","","","false","","","","","","","","","","88.39999997615814","","448.7999999523163","","1","0","arrowleft","0","arrowright","[0.85,0.15,0.675,0.325]","","",""
"sailing-trial","238","1012162","0.0-11.0-203.0","","","","false","","","","","","","","","","null","","23","","3","1","null","null","arrowup","[0.85,0.15,0.675,0.325]","","",""
"sailing-trial","239","1015129","0.0-11.0-204.0","","","","false","","","","","","","","","","214.79999995231628","","185.79999995231628","","0","1","arrowleft","0","arrowleft","[0.85,0.15,0.675,0.325]","","",""
"sailing-trial","240","1018248","0.0-11.0-205.0","","","","false","","","","","","","","","","null","","960","","2","1","null","null","arrowup","[0.85,0.15,0.675,0.325]","","",""
"sailing-trial","241","1021853","0.0-11.0-206.0","","","","false","","","","","","","","","","256.89999997615814","","429","","3","1","arrowright","1","arrowright","[0.85,0.15,0.675,0.325]","","",""
"sailing-trial","242","1024134","0.0-11.0-207.0","","","","false","","","","","","","","","","null","","762.8000000715256","","0","1","null","null","arrowup","[0.85,0.15,0.675,0.325]","","",""
"sailing-trial","243","1026958","0.0-11.0-208.0","","","","false","","","","","","","","","","514.3999999761581","","93.39999997615814","","3","0","arrowright","1","arrowright","[0.675,0.325,0.85,0.15]","","",""
"sailing-trial","244","1029583","0.0-11.0-209.0","","","","false","","","","","","","","","","null","","972.3999999761581","","0","1","null","null","arrowup","[0.675,0.325,0.85,0.15]","","",""
"sailing-trial","245","1032802","0.0-11.0-210.0","","","","false","","","","","","","","","","536.5","","44.199999928474426","","0","1","arrowleft","0","arrowleft","[0.675,0.325,0.85,0.15]","","",""
"sailing-trial","246","1035350","0.0-11.0-211.0","","","","false","","","","","","","","","","null","","928.5","","0","1","null","null","arrowup","[0.675,0.325,0.85,0.15]","","",""
"sailing-trial","247","1038286","0.0-11.0-212.0","","","","false","","","","","","","","","","328.2000000476837","","29.699999928474426","","0","1","arrowleft","0","arrowleft","[0.675,0.325,0.85,0.15]","","",""
"sailing-trial","248","1039723","0.0-11.0-213.0","","","","false","","","","","","","","","","null","","243.19999992847443","","3","0","null","null","arrowup","[0.675,0.325,0.85,0.15]","","",""
"sailing-trial","249","1042232","0.0-11.0-214.0","","","","false","","","","","","","","","","18.899999976158142","","271.09999990463257","","0","0","arrowleft","0","arrowleft","[0.675,0.325,0.85,0.15]","","",""
"sailing-trial","250","1043511","0.0-11.0-215.0","","","","false","","","","","","","","","","null","","16.299999952316284","","1","0","null","null","arrowup","[0.675,0.325,0.85,0.15]","","",""
"sailing-trial","251","1046250","0.0-11.0-216.0","","","","false","","","","","","","","","","14.100000023841858","","6","","0","1","arrowleft","0","arrowleft","[0.675,0.325,0.85,0.15]","","",""
"sailing-trial","252","1047402","0.0-11.0-217.0","","","","false","","","","","","","","","","null","","60.299999952316284","","1","0","null","null","arrowup","[0.675,0.325,0.85,0.15]","","",""
"sailing-trial","253","1054783","0.0-11.0-218.0","","","","false","","","","","","","","","","4171.199999928474","","473.1999999284744","","0","1","arrowleft","0","arrowleft","[0.675,0.325,0.85,0.15]","","",""
"sailing-trial","254","1056129","0.0-11.0-219.0","","","","false","","","","","","","","","","null","","170.19999992847443","","3","0","null","null","arrowup","[0.675,0.325,0.85,0.15]","","",""
"sailing-trial","255","1058944","0.0-11.0-220.0","","","","false","","","","","","","","","","221.89999997615814","","377.7000000476837","","0","0","arrowleft","0","arrowleft","[0.675,0.325,0.85,0.15]","","",""
"sailing-trial","256","1060408","0.0-11.0-221.0","","","","false","","","","","","","","","","null","","354","","3","0","null","null","arrowup","[0.675,0.325,0.85,0.15]","","",""
"sailing-trial","257","1062773","0.0-11.0-222.0","","","","false","","","","","","","","","","80.39999997615814","","102.09999990463257","","0","0","arrowleft","0","arrowleft","[0.675,0.325,0.85,0.15]","","",""
"sailing-trial","258","1066439","0.0-11.0-223.0","","","","false","","","","","","","","","","null","","1340.7999999523163","","2","0","null","null","arrowup","[0.675,0.325,0.85,0.15]","","",""
"sailing-trial","259","1068823","0.0-11.0-224.0","","","","false","","","","","","","","","","82.70000004768372","","6.099999904632568","","3","0","arrowright","1","arrowright","[0.675,0.325,0.85,0.15]","","",""
"sailing-trial","260","1071031","0.0-11.0-225.0","","","","false","","","","","","","","","","null","","131.79999995231628","","0","1","null","null","arrowup","[0.675,0.325,0.85,0.15]","","",""
"sailing-trial","261","1073771","0.0-11.0-226.0","","","","false","","","","","","","","","","597.5","","109.89999997615814","","1","0","arrowleft","0","arrowright","[0.85,0.15,0.675,0.325]","","",""
"sailing-trial","262","1075754","0.0-11.0-227.0","","","","false","","","","","","","","","","null","","933.6000000238419","","1","0","null","null","arrowup","[0.85,0.15,0.675,0.325]","","",""
"sailing-trial","263","1079465","0.0-11.0-228.0","","","","false","","","","","","","","","","418.60000002384186","","326","","0","1","arrowleft","0","arrowleft","[0.85,0.15,0.675,0.325]","","",""
"sailing-trial","264","1081376","0.0-11.0-229.0","","","","false","","","","","","","","","","null","","78.19999992847443","","3","1","null","null","arrowup","[0.85,0.15,0.675,0.325]","","",""
"sailing-trial","265","1084848","0.0-11.0-230.0","","","","false","","","","","","","","","","365.2999999523163","","445.09999990463257","","0","1","arrowleft","0","arrowleft","[0.85,0.15,0.675,0.325]","","",""
"sailing-trial","266","1086741","0.0-11.0-231.0","","","","false","","","","","","","","","","null","","624.5","","2","0","null","null","arrowup","[0.85,0.15,0.675,0.325]","","",""
"sailing-trial","267","1089894","0.0-11.0-232.0","","","","false","","","","","","","","","","151.40000009536743","","226.79999995231628","","0","1","arrowleft","0","arrowleft","[0.85,0.15,0.675,0.325]","","",""
"sailing-trial","268","1091974","0.0-11.0-233.0","","","","false","","","","","","","","","","null","","351.1999999284744","","3","1","null","null","arrowup","[0.85,0.15,0.675,0.325]","","",""
"sailing-trial","269","1094941","0.0-11.0-234.0","","","","false","","","","","","","","","","26.200000047683716","","219.59999990463257","","0","1","arrowleft","0","arrowleft","[0.85,0.15,0.675,0.325]","","",""
"sailing-trial","270","1097003","0.0-11.0-235.0","","","","false","","","","","","","","","","null","","243.79999995231628","","0","1","null","null","arrowup","[0.85,0.15,0.675,0.325]","","",""
"sailing-trial","271","1099943","0.0-11.0-236.0","","","","false","","","","","","","","","","81.89999997615814","","551.1000000238419","","0","0","arrowleft","0","arrowleft","[0.85,0.15,0.675,0.325]","","",""
"sailing-trial","272","1101337","0.0-11.0-237.0","","","","false","","","","","","","","","","null","","130.69999992847443","","2","0","null","null","arrowup","[0.85,0.15,0.675,0.325]","","",""
"sailing-trial","273","1104798","0.0-11.0-238.0","","","","false","","","","","","","","","","450.5","","449.59999990463257","","0","0","arrowleft","0","arrowleft","[0.85,0.15,0.675,0.325]","","",""
"sailing-trial","274","1106419","0.0-11.0-239.0","","","","false","","","","","","","","","","null","","24.5","","3","0","null","null","arrowup","[0.85,0.15,0.675,0.325]","","",""
"sailing-trial","275","1109551","0.0-11.0-240.0","","","","false","","","","","","","","","","673.3999999761581","","251.20000004768372","","1","0","arrowleft","0","arrowright","[0.85,0.15,0.675,0.325]","","",""
"sailing-trial","276","1112346","0.0-11.0-241.0","","","","false","","","","","","","","","","null","","1093.2000000476837","","0","1","null","null","arrowup","[0.85,0.15,0.675,0.325]","","",""
"sailing-trial","277","1115313","0.0-11.0-242.0","","","","false","","","","","","","","","","265.10000002384186","","167.80000007152557","","0","1","arrowleft","0","arrowleft","[0.675,0.325,0.85,0.15]","","",""
"sailing-trial","278","1117425","0.0-11.0-243.0","","","","false","","","","","","","","","","null","","450.7999999523163","","1","1","null","null","arrowup","[0.675,0.325,0.85,0.15]","","",""
"sailing-trial","279","1120210","0.0-11.0-244.0","","","","false","","","","","","","","","","44.5","","5.299999952316284","","0","1","arrowleft","0","arrowleft","[0.675,0.325,0.85,0.15]","","",""
"sailing-trial","280","1121454","0.0-11.0-245.0","","","","false","","","","","","","","","","null","","42.200000047683716","","3","0","null","null","arrowup","[0.675,0.325,0.85,0.15]","","",""
"sailing-trial","281","1124568","0.0-11.0-246.0","","","","false","","","","","","","","","","184","","280.60000002384186","","0","1","arrowleft","0","arrowleft","[0.675,0.325,0.85,0.15]","","",""
"sailing-trial","282","1126615","0.0-11.0-247.0","","","","false","","","","","","","","","","null","","287.40000009536743","","2","1","null","null","arrowup","[0.675,0.325,0.85,0.15]","","",""
"sailing-trial","283","1130404","0.0-11.0-248.0","","","","false","","","","","","","","","","72.30000007152557","","901","","0","1","arrowleft","0","arrowleft","[0.675,0.325,0.85,0.15]","","",""
"sailing-trial","284","1132298","0.0-11.0-249.0","","","","false","","","","","","","","","","null","","107.90000009536743","","0","1","null","null","arrowup","[0.675,0.325,0.85,0.15]","","",""
"sailing-trial","285","1136208","0.0-11.0-250.0","","","","false","","","","","","","","","","411.6999999284744","","1220.2999999523163","","0","0","arrowleft","0","arrowleft","[0.675,0.325,0.85,0.15]","","",""
"sailing-trial","286","1137506","0.0-11.0-251.0","","","","false","","","","","","","","","","null","","34","","2","0","null","null","arrowup","[0.675,0.325,0.85,0.15]","","",""
"sailing-trial","287","1141806","0.0-11.0-252.0","","","","false","","","","","","","","","","2.299999952316284","","1195.2000000476837","","0","1","arrowleft","0","arrowleft","[0.675,0.325,0.85,0.15]","","",""
"sailing-trial","288","1143431","0.0-11.0-253.0","","","","false","","","","","","","","","","null","","65.20000004768372","","0","1","null","null","arrowup","[0.675,0.325,0.85,0.15]","","",""
"sailing-trial","289","1146225","0.0-11.0-254.0","","","","false","","","","","","","","","","568.1999999284744","","47.200000047683716","","0","0","arrowleft","0","arrowleft","[0.675,0.325,0.85,0.15]","","",""
"sailing-trial","290","1148207","0.0-11.0-255.0","","","","false","","","","","","","","","","null","","959","","3","0","null","null","arrowup","[0.675,0.325,0.85,0.15]","","",""
"sailing-trial","291","1152185","0.0-11.0-256.0","","","","false","","","","","","","","","","1198","","29.5","","2","1","arrowright","1","arrowleft","[0.675,0.325,0.85,0.15]","","",""
"sailing-trial","292","1154424","0.0-11.0-257.0","","","","false","","","","","","","","","","null","","901","","3","0","null","null","arrowup","[0.675,0.325,0.85,0.15]","","",""
"sailing-trial","293","1157246","0.0-11.0-258.0","","","","false","","","","","","","","","","413","","288","","2","0","arrowright","1","arrowleft","[0.675,0.325,0.85,0.15]","","",""
"sailing-trial","294","1159999","0.0-11.0-259.0","","","","false","","","","","","","","","","null","","993.2000000476837","","2","1","null","null","arrowup","[0.675,0.325,0.85,0.15]","","",""
"sailing-trial","295","1162547","0.0-11.0-260.0","","","","false","","","","","","","","","","323.09999990463257","","88.19999992847443","","2","0","arrowright","1","arrowleft","[0.85,0.15,0.675,0.325]","","",""
"sailing-trial","296","1164943","0.0-11.0-261.0","","","","false","","","","","","","","","","null","","649","","1","0","null","null","arrowup","[0.85,0.15,0.675,0.325]","","",""
"sailing-trial","297","1168567","0.0-11.0-262.0","","","","false","","","","","","","","","","823.2999999523163","","50.39999997615814","","2","1","arrowright","1","arrowleft","[0.85,0.15,0.675,0.325]","","",""
"sailing-trial","298","1169655","0.0-11.0-263.0","","","","false","","","","","","","","","","null","","80.60000002384186","","0","0","null","null","arrowup","[0.85,0.15,0.675,0.325]","","",""
"sailing-trial","299","1172298","0.0-11.0-264.0","","","","false","","","","","","","","","","236.89999997615814","","166.90000009536743","","2","0","arrowright","1","arrowleft","[0.85,0.15,0.675,0.325]","","",""
"sailing-trial","300","1173914","0.0-11.0-265.0","","","","false","","","","","","","","","","null","","53","","3","1","null","null","arrowup","[0.85,0.15,0.675,0.325]","","",""
"sailing-trial","301","1176983","0.0-11.0-266.0","","","","false","","","","","","","","","","226.40000009536743","","86.10000002384186","","3","1","arrowright","1","arrowright","[0.85,0.15,0.675,0.325]","","",""
"sailing-trial","302","1178248","0.0-11.0-267.0","","","","false","","","","","","","","","","null","","94.79999995231628","","3","0","null","null","arrowup","[0.85,0.15,0.675,0.325]","","",""
"sailing-trial","303","1181427","0.0-11.0-268.0","","","","false","","","","","","","","","","336","","110.39999997615814","","2","1","arrowright","1","arrowleft","[0.85,0.15,0.675,0.325]","","",""
"sailing-trial","304","1183020","0.0-11.0-269.0","","","","false","","","","","","","","","","null","","0.10000002384185791","","3","1","null","null","arrowup","[0.85,0.15,0.675,0.325]","","",""
"sailing-trial","305","1185619","0.0-11.0-270.0","","","","false","","","","","","","","","","304.10000002384186","","64.60000002384186","","2","0","arrowright","1","arrowleft","[0.85,0.15,0.675,0.325]","","",""
"sailing-trial","306","1188482","0.0-11.0-271.0","","","","false","","","","","","","","","","null","","869","","1","0","null","null","arrowup","[0.85,0.15,0.675,0.325]","","",""
"sailing-trial","307","1192125","0.0-11.0-272.0","","","","false","","","","","","","","","","828.7999999523163","","154.60000002384186","","3","1","arrowright","1","arrowright","[0.85,0.15,0.675,0.325]","","",""
"sailing-trial","308","1193734","0.0-11.0-273.0","","","","false","","","","","","","","","","null","","10.600000023841858","","2","1","null","null","arrowup","[0.85,0.15,0.675,0.325]","","",""
"sailing-trial","309","1196349","0.0-11.0-274.0","","","","false","","","","","","","","","","100.5","","482","","3","0","arrowright","1","arrowright","[0.85,0.15,0.675,0.325]","","",""
"sailing-trial","310","1198137","0.0-11.0-275.0","","","","false","","","","","","","","","","null","","693.6000000238419","","2","0","null","null","arrowup","[0.85,0.15,0.675,0.325]","","",""
"sailing-trial","311","1201544","0.0-11.0-276.0","","","","false","","","","","","","","","","475.6999999284744","","368","","3","0","arrowright","1","arrowright","[0.85,0.15,0.675,0.325]","","",""
"sailing-trial","312","1203438","0.0-11.0-277.0","","","","false","","","","","","","","","","null","","762.3000000715256","","2","0","null","null","arrowup","[0.85,0.15,0.675,0.325]","","",""
"sailing-trial","313","1207909","0.0-11.0-278.0","","","","false","","","","","","","","","","183.79999995231628","","281","","1","0","arrowleft","0","arrowright","[0.85,0.15,0.675,0.325]","","",""
"sailing-trial","314","1211373","0.0-11.0-279.0","","","","false","","","","","","","","","","null","","1775.8999999761581","","0","1","null","null","arrowup","[0.85,0.15,0.675,0.325]","","",""
"sailing-trial","315","1214174","0.0-11.0-280.0","","","","false","","","","","","","","","","103.80000007152557","","18.09999990463257","","0","1","arrowleft","0","arrowleft","[0.675,0.325,0.85,0.15]","","",""
"sailing-trial","316","1216286","0.0-11.0-281.0","","","","false","","","","","","","","","","null","","269","","0","1","null","null","arrowup","[0.675,0.325,0.85,0.15]","","",""
"sailing-trial","317","1219414","0.0-11.0-282.0","","","","false","","","","","","","","","","55.799999952316284","","51.5","","0","0","arrowleft","0","arrowleft","[0.675,0.325,0.85,0.15]","","",""
"sailing-trial","318","1220639","0.0-11.0-283.0","","","","false","","","","","","","","","","null","","11.700000047683716","","0","0","null","null","arrowup","[0.675,0.325,0.85,0.15]","","",""
"sailing-trial","319","1224318","0.0-11.0-284.0","","","","false","","","","","","","","","","288.2000000476837","","329.1999999284744","","0","1","arrowleft","0","arrowleft","[0.675,0.325,0.85,0.15]","","",""
"sailing-trial","320","1226715","0.0-11.0-285.0","","","","false","","","","","","","","","","null","","776","","0","1","null","null","arrowup","[0.675,0.325,0.85,0.15]","","",""
"sailing-trial","321","1229583","0.0-11.0-286.0","","","","false","","","","","","","","","","176.19999992847443","","158.60000002384186","","0","1","arrowleft","0","arrowleft","[0.675,0.325,0.85,0.15]","","",""
"sailing-trial","322","1230786","0.0-11.0-287.0","","","","false","","","","","","","","","","null","","182.10000002384186","","2","0","null","null","arrowup","[0.675,0.325,0.85,0.15]","","",""
"sailing-trial","323","1233691","0.0-11.0-288.0","","","","false","","","","","","","","","","165.5","","164.20000004768372","","0","1","arrowleft","0","arrowleft","[0.675,0.325,0.85,0.15]","","",""
"sailing-trial","324","1235534","0.0-11.0-289.0","","","","false","","","","","","","","","","null","","267.8000000715256","","2","1","null","null","arrowup","[0.675,0.325,0.85,0.15]","","",""
"sailing-trial","325","1237855","0.0-11.0-290.0","","","","false","","","","","","","","","","28.300000071525574","","243","","0","0","arrowleft","0","arrowleft","[0.675,0.325,0.85,0.15]","","",""
"sailing-trial","326","1239694","0.0-11.0-291.0","","","","false","","","","","","","","","","null","","212.10000002384186","","1","1","null","null","arrowup","[0.675,0.325,0.85,0.15]","","",""
"sailing-trial","327","1242611","0.0-11.0-292.0","","","","false","","","","","","","","","","38.39999997615814","","307.2999999523163","","0","1","arrowleft","0","arrowleft","[0.675,0.325,0.85,0.15]","","",""
"sailing-trial","328","1244505","0.0-11.0-293.0","","","","false","","","","","","","","","","null","","320.8000000715256","","0","1","null","null","arrowup","[0.675,0.325,0.85,0.15]","","",""
"sailing-trial","329","1247809","0.0-11.0-294.0","","","","false","","","","","","","","","","286.2999999523163","","328.1999999284744","","0","1","arrowleft","0","arrowleft","[0.675,0.325,0.85,0.15]","","",""
"sailing-trial","330","1249469","0.0-11.0-295.0","","","","false","","","","","","","","","","null","","43.699999928474426","","2","1","null","null","arrowup","[0.675,0.325,0.85,0.15]","","",""
"sailing-trial","331","1252101","0.0-11.0-296.0","","","","false","","","","","","","","","","21.5","","31.800000071525574","","0","1","arrowleft","0","arrowleft","[0.85,0.15,0.675,0.325]","","",""
"sailing-trial","332","1253434","0.0-11.0-297.0","","","","false","","","","","","","","","","null","","315","","1","0","null","null","arrowup","[0.85,0.15,0.675,0.325]","","",""
"sailing-trial","333","1256561","0.0-11.0-298.0","","","","false","","","","","","","","","","210.89999997615814","","284.2999999523163","","0","1","arrowleft","0","arrowleft","[0.85,0.15,0.675,0.325]","","",""
"sailing-trial","334","1257867","0.0-11.0-299.0","","","","false","","","","","","","","","","null","","270.09999990463257","","1","0","null","null","arrowup","[0.85,0.15,0.675,0.325]","","",""
"sailing-trial","335","1260988","0.0-11.0-300.0","","","","false","","","","","","","","","","214.09999990463257","","262.59999990463257","","0","1","arrowleft","0","arrowleft","[0.85,0.15,0.675,0.325]","","",""
"sailing-trial","336","1262548","0.0-11.0-301.0","","","","false","","","","","","","","","","null","","190.19999992847443","","1","0","null","null","arrowup","[0.85,0.15,0.675,0.325]","","",""
"sailing-trial","337","1265486","0.0-11.0-302.0","","","","false","","","","","","","","","","469.7999999523163","","298.5","","0","0","arrowleft","0","arrowleft","[0.85,0.15,0.675,0.325]","","",""
"sailing-trial","338","1266763","0.0-11.0-303.0","","","","false","","","","","","","","","","null","","185","","2","0","null","null","arrowup","[0.85,0.15,0.675,0.325]","","",""
"sailing-trial","339","1269724","0.0-11.0-304.0","","","","false","","","","","","","","","","107","","220.79999995231628","","0","1","arrowleft","0","arrowleft","[0.85,0.15,0.675,0.325]","","",""
"sailing-trial","340","1272020","0.0-11.0-305.0","","","","false","","","","","","","","","","null","","591.2000000476837","","2","1","null","null","arrowup","[0.85,0.15,0.675,0.325]","","",""
"sailing-trial","341","1275308","0.0-11.0-306.0","","","","false","","","","","","","","","","237.19999992847443","","258.7000000476837","","2","1","arrowright","1","arrowleft","[0.85,0.15,0.675,0.325]","","",""
"sailing-trial","342","1276642","0.0-11.0-307.0","","","","false","","","","","","","","","","null","","255.29999995231628","","2","0","null","null","arrowup","[0.85,0.15,0.675,0.325]","","",""
"sailing-trial","343","1280337","0.0-11.0-308.0","","","","false","","","","","","","","","","321","","478","","2","1","arrowright","1","arrowleft","[0.85,0.15,0.675,0.325]","","",""
"sailing-trial","344","1282770","0.0-11.0-309.0","","","","false","","","","","","","","","","null","","823","","3","1","null","null","arrowup","[0.85,0.15,0.675,0.325]","","",""
"sailing-trial","345","1286894","0.0-11.0-310.0","","","","false","","","","","","","","","","209","","120.29999995231628","","2","1","arrowright","1","arrowleft","[0.85,0.15,0.675,0.325]","","",""
"sailing-trial","346","1288889","0.0-11.0-311.0","","","","false","","","","","","","","","","null","","750.5999999046326","","0","0","null","null","arrowup","[0.85,0.15,0.675,0.325]","","",""
"sailing-trial","347","1291975","0.0-11.0-312.0","","","","false","","","","","","","","","","301.3000000715256","","98.89999997615814","","2","1","arrowright","1","arrowleft","[0.85,0.15,0.675,0.325]","","",""
"sailing-trial","348","1294590","0.0-11.0-313.0","","","","false","","","","","","","","","","null","","992.1999999284744","","1","1","null","null","arrowup","[0.85,0.15,0.675,0.325]","","",""
"sailing-trial","349","1297708","0.0-11.0-314.0","","","","false","","","","","","","","","","234.19999992847443","","149.10000002384186","","2","1","arrowright","1","arrowleft","[0.85,0.15,0.675,0.325]","","",""
"sailing-trial","350","1301028","0.0-11.0-315.0","","","","false","","","","","","","","","","null","","768.8999999761581","","2","1","null","null","arrowup","[0.85,0.15,0.675,0.325]","","",""
"sailing-trial","351","1303812","0.0-11.0-316.0","","","","false","","","","","","","","","","127.5","","128.70000004768372","","2","1","arrowright","1","arrowleft","[0.85,0.15,0.675,0.325]","","",""
"sailing-trial","352","1305626","0.0-11.0-317.0","","","","false","","","","","","","","","","null","","638.7999999523163","","1","0","null","null","arrowup","[0.85,0.15,0.675,0.325]","","",""
"sailing-trial","353","1308760","0.0-11.0-318.0","","","","false","","","","","","","","","","463.5","","185.10000002384186","","2","0","arrowright","1","arrowleft","[0.85,0.15,0.675,0.325]","","",""
"sailing-trial","354","1311038","0.0-11.0-319.0","","","","false","","","","","","","","","","null","","727.8999999761581","","0","1","null","null","arrowup","[0.85,0.15,0.675,0.325]","","",""
"sailing-trial","355","1315297","0.0-11.0-320.0","","","","false","","","","","","","","","","467.09999990463257","","668.1999999284744","","2","1","arrowright","1","arrowleft","[0.15,0.85,0.325,0.675]","","",""
"sailing-trial","356","1317913","0.0-11.0-321.0","","","","false","","","","","","","","","","null","","460.6999999284744","","3","1","null","null","arrowup","[0.15,0.85,0.325,0.675]","","",""
"sailing-trial","357","1320666","0.0-11.0-322.0","","","","false","","","","","","","","","","285.39999997615814","","171.60000002384186","","2","0","arrowright","1","arrowleft","[0.15,0.85,0.325,0.675]","","",""
"sailing-trial","358","1322808","0.0-11.0-323.0","","","","false","","","","","","","","","","null","","616.3999999761581","","3","1","null","null","arrowup","[0.15,0.85,0.325,0.675]","","",""
"sailing-trial","359","1326934","0.0-11.0-324.0","","","","false","","","","","","","","","","545.8999999761581","","402.59999990463257","","3","1","arrowright","1","arrowright","[0.15,0.85,0.325,0.675]","","",""
"sailing-trial","360","1329717","0.0-11.0-325.0","","","","false","","","","","","","","","","null","","1095.6000000238419","","2","1","null","null","arrowup","[0.15,0.85,0.325,0.675]","","",""
"sailing-trial","361","1332406","0.0-11.0-326.0","","","","false","","","","","","","","","","436.7999999523163","","80.70000004768372","","3","0","arrowright","1","arrowright","[0.15,0.85,0.325,0.675]","","",""
"sailing-trial","362","1334412","0.0-11.0-327.0","","","","false","","","","","","","","","","null","","239.39999997615814","","2","1","null","null","arrowup","[0.15,0.85,0.325,0.675]","","",""
"sailing-trial","363","1338855","0.0-11.0-328.0","","","","false","","","","","","","","","","87.10000002384186","","1603","","3","1","arrowright","1","arrowright","[0.15,0.85,0.325,0.675]","","",""
"sailing-trial","364","1341153","0.0-11.0-329.0","","","","false","","","","","","","","","","null","","773.3999999761581","","0","1","null","null","arrowup","[0.15,0.85,0.325,0.675]","","",""
"sailing-trial","365","1344405","0.0-11.0-330.0","","","","false","","","","","","","","","","276","","416.39999997615814","","3","1","arrowright","1","arrowright","[0.15,0.85,0.325,0.675]","","",""
"sailing-trial","366","1346146","0.0-11.0-331.0","","","","false","","","","","","","","","","null","","634.0999999046326","","2","0","null","null","arrowup","[0.15,0.85,0.325,0.675]","","",""
"sailing-trial","367","1348757","0.0-11.0-332.0","","","","false","","","","","","","","","","273.3000000715256","","67.89999997615814","","3","0","arrowright","1","arrowright","[0.15,0.85,0.325,0.675]","","",""
"sailing-trial","368","1351045","0.0-11.0-333.0","","","","false","","","","","","","","","","null","","422","","1","1","null","null","arrowup","[0.15,0.85,0.325,0.675]","","",""
"sailing-trial","369","1355120","0.0-11.0-334.0","","","","false","","","","","","","","","","241.10000002384186","","183.59999990463257","","1","1","arrowleft","0","arrowright","[0.15,0.85,0.325,0.675]","","",""
"sailing-trial","370","1356941","0.0-11.0-335.0","","","","false","","","","","","","","","","null","","759.5999999046326","","0","0","null","null","arrowup","[0.15,0.85,0.325,0.675]","","",""
"sailing-trial","371","1359515","0.0-11.0-336.0","","","","false","","","","","","","","","","372.60000002384186","","36.299999952316284","","1","0","arrowleft","0","arrowright","[0.15,0.85,0.325,0.675]","","",""
"sailing-trial","372","1361928","0.0-11.0-337.0","","","","false","","","","","","","","","","null","","856.3999999761581","","1","1","null","null","arrowup","[0.15,0.85,0.325,0.675]","","",""
"sailing-trial","373","1364956","0.0-11.0-338.0","","","","false","","","","","","","","","","477.2999999523163","","339.60000002384186","","1","0","arrowleft","0","arrowright","[0.15,0.85,0.325,0.675]","","",""
"sailing-trial","374","1367544","0.0-11.0-339.0","","","","false","","","","","","","","","","null","","906.0999999046326","","1","1","null","null","arrowup","[0.15,0.85,0.325,0.675]","","",""
"sailing-trial","375","1370830","0.0-11.0-340.0","","","","false","","","","","","","","","","60.10000002384186","","329.89999997615814","","1","1","arrowleft","0","arrowright","[0.325,0.675,0.15,0.85]","","",""
"sailing-trial","376","1373346","0.0-11.0-341.0","","","","false","","","","","","","","","","null","","927.1000000238419","","3","1","null","null","arrowup","[0.325,0.675,0.15,0.85]","","",""
"sailing-trial","377","1376779","0.0-11.0-342.0","","","","false","","","","","","","","","","557","","554.5999999046326","","1","0","arrowleft","0","arrowright","[0.325,0.675,0.15,0.85]","","",""
"sailing-trial","378","1379415","0.0-11.0-343.0","","","","false","","","","","","","","","","null","","956.5999999046326","","2","1","null","null","arrowup","[0.325,0.675,0.15,0.85]","","",""
"sailing-trial","379","1383371","0.0-11.0-344.0","","","","false","","","","","","","","","","761.4000000953674","","115.09999990463257","","3","1","arrowright","1","arrowright","[0.325,0.675,0.15,0.85]","","",""
"sailing-trial","380","1386307","0.0-11.0-345.0","","","","false","","","","","","","","","","null","","1012.5","","3","1","null","null","arrowup","[0.325,0.675,0.15,0.85]","","",""
"sailing-trial","381","1391772","0.0-11.0-346.0","","","","false","","","","","","","","","","2119.5999999046326","","194.09999990463257","","1","1","arrowleft","0","arrowright","[0.325,0.675,0.15,0.85]","","",""
"sailing-trial","382","1393481","0.0-11.0-347.0","","","","false","","","","","","","","","","null","","138.10000002384186","","3","1","null","null","arrowup","[0.325,0.675,0.15,0.85]","","",""
"sailing-trial","383","1396920","0.0-11.0-348.0","","","","false","","","","","","","","","","553.8999999761581","","20.600000023841858","","3","1","arrowright","1","arrowright","[0.325,0.675,0.15,0.85]","","",""
"sailing-trial","384","1399126","0.0-11.0-349.0","","","","false","","","","","","","","","","null","","1181.2000000476837","","0","0","null","null","arrowup","[0.325,0.675,0.15,0.85]","","",""
"sailing-trial","385","1401921","0.0-11.0-350.0","","","","false","","","","","","","","","","258.89999997615814","","206.19999992847443","","3","0","arrowright","1","arrowright","[0.325,0.675,0.15,0.85]","","",""
"sailing-trial","386","1404415","0.0-11.0-351.0","","","","false","","","","","","","","","","null","","386","","2","1","null","null","arrowup","[0.325,0.675,0.15,0.85]","","",""
"sailing-trial","387","1407308","0.0-11.0-352.0","","","","false","","","","","","","","","","652.2999999523163","","167.69999992847443","","3","0","arrowright","1","arrowright","[0.325,0.675,0.15,0.85]","","",""
"sailing-trial","388","1409730","0.0-11.0-353.0","","","","false","","","","","","","","","","null","","813.9000000953674","","1","1","null","null","arrowup","[0.325,0.675,0.15,0.85]","","",""
"sailing-trial","389","1413535","0.0-11.0-354.0","","","","false","","","","","","","","","","236.39999997615814","","748.1999999284744","","3","1","arrowright","1","arrowright","[0.325,0.675,0.15,0.85]","","",""
"sailing-trial","390","1415296","0.0-11.0-355.0","","","","false","","","","","","","","","","null","","192.90000009536743","","3","1","null","null","arrowup","[0.325,0.675,0.15,0.85]","","",""
"sailing-trial","391","1418548","0.0-11.0-356.0","","","","false","","","","","","","","","","390.10000002384186","","236.39999997615814","","3","1","arrowright","1","arrowright","[0.325,0.675,0.15,0.85]","","",""
"sailing-trial","392","1420597","0.0-11.0-357.0","","","","false","","","","","","","","","","null","","916.3999999761581","","0","0","null","null","arrowup","[0.325,0.675,0.15,0.85]","","",""
"sailing-trial","393","1423165","0.0-11.0-358.0","","","","false","","","","","","","","","","179.40000009536743","","253.79999995231628","","3","0","arrowright","1","arrowright","[0.325,0.675,0.15,0.85]","","",""
"sailing-trial","394","1424921","0.0-11.0-359.0","","","","false","","","","","","","","","","null","","178.59999990463257","","3","1","null","null","arrowup","[0.325,0.675,0.15,0.85]","","",""
"sailing-trial","395","1429397","0.0-11.0-360.0","","","","false","","","","","","","","","","556.6999999284744","","1149.0999999046326","","3","1","arrowright","1","arrowright","[0.15,0.85,0.325,0.675]","","",""
"sailing-trial","396","1431511","0.0-11.0-361.0","","","","false","","","","","","","","","","null","","161.5","","2","1","null","null","arrowup","[0.15,0.85,0.325,0.675]","","",""
"sailing-trial","397","1435042","0.0-11.0-362.0","","","","false","","","","","","","","","","1248","","63.40000009536743","","3","0","arrowright","1","arrowright","[0.15,0.85,0.325,0.675]","","",""
"sailing-trial","398","1438234","0.0-11.0-363.0","","","","false","","","","","","","","","","null","","366","","2","1","null","null","arrowup","[0.15,0.85,0.325,0.675]","","",""
"sailing-trial","399","1440851","0.0-11.0-364.0","","","","false","","","","","","","","","","452.8000000715256","","53.39999997615814","","2","0","arrowright","1","arrowleft","[0.15,0.85,0.325,0.675]","","",""
"sailing-trial","400","1443432","0.0-11.0-365.0","","","","false","","","","","","","","","","null","","754.7999999523163","","2","1","null","null","arrowup","[0.15,0.85,0.325,0.675]","","",""
"sailing-trial","401","1445965","0.0-11.0-366.0","","","","false","","","","","","","","","","174.40000009536743","","246.80000007152557","","2","0","arrowright","1","arrowleft","[0.15,0.85,0.325,0.675]","","",""
"sailing-trial","402","1448033","0.0-11.0-367.0","","","","false","","","","","","","","","","null","","824.7999999523163","","0","0","null","null","arrowup","[0.15,0.85,0.325,0.675]","","",""
"sailing-trial","403","1450997","0.0-11.0-368.0","","","","false","","","","","","","","","","530.9000000953674","","111.10000002384186","","1","0","arrowleft","0","arrowright","[0.15,0.85,0.325,0.675]","","",""
"sailing-trial","404","1453055","0.0-11.0-369.0","","","","false","","","","","","","","","","null","","811.5","","0","0","null","null","arrowup","[0.15,0.85,0.325,0.675]","","",""
"sailing-trial","405","1456780","0.0-11.0-370.0","","","","false","","","","","","","","","","482.6999999284744","","266.6999999284744","","2","0","arrowright","1","arrowleft","[0.15,0.85,0.325,0.675]","","",""
"sailing-trial","406","1459411","0.0-11.0-371.0","","","","false","","","","","","","","","","null","","887.3000000715256","","1","1","null","null","arrowup","[0.15,0.85,0.325,0.675]","","",""
"sailing-trial","407","1462538","0.0-11.0-372.0","","","","false","","","","","","","","","","564.5","","330.8000000715256","","2","0","arrowright","1","arrowleft","[0.15,0.85,0.325,0.675]","","",""
"sailing-trial","408","1464911","0.0-11.0-373.0","","","","false","","","","","","","","","","null","","706.6999999284744","","3","1","null","null","arrowup","[0.15,0.85,0.325,0.675]","","",""
"sailing-trial","409","1467549","0.0-11.0-374.0","","","","false","","","","","","","","","","452.2000000476837","","58.60000002384186","","3","0","arrowright","1","arrowright","[0.15,0.85,0.325,0.675]","","",""
"sailing-trial","410","1469338","0.0-11.0-375.0","","","","false","","","","","","","","","","null","","692.1000000238419","","2","0","null","null","arrowup","[0.15,0.85,0.325,0.675]","","",""
"sailing-trial","411","1471673","0.0-11.0-376.0","","","","false","","","","","","","","","","194","","125.60000002384186","","3","0","arrowright","1","arrowright","[0.15,0.85,0.325,0.675]","","",""
"sailing-trial","412","1473832","0.0-11.0-377.0","","","","false","","","","","","","","","","null","","1021.8000000715256","","2","0","null","null","arrowup","[0.15,0.85,0.325,0.675]","","",""
"sailing-trial","413","1476534","0.0-11.0-378.0","","","","false","","","","","","","","","","590.8000000715256","","14.300000071525574","","0","0","arrowleft","0","arrowleft","[0.325,0.675,0.15,0.85]","","",""
"sailing-trial","414","1478118","0.0-11.0-379.0","","","","false","","","","","","","","","","null","","25.899999976158142","","0","0","null","null","arrowup","[0.325,0.675,0.15,0.85]","","",""
"sailing-trial","415","1481590","0.0-11.0-380.0","","","","false","","","","","","","","","","1341.9000000953674","","51.89999997615814","","1","0","arrowleft","0","arrowright","[0.325,0.675,0.15,0.85]","","",""
"sailing-trial","416","1483255","0.0-11.0-381.0","","","","false","","","","","","","","","","null","","61.300000071525574","","1","1","null","null","arrowup","[0.325,0.675,0.15,0.85]","","",""
"sailing-trial","417","1486173","0.0-11.0-382.0","","","","false","","","","","","","","","","563.0999999046326","","51.10000002384186","","1","0","arrowleft","0","arrowright","[0.325,0.675,0.15,0.85]","","",""
"sailing-trial","418","1488050","0.0-11.0-383.0","","","","false","","","","","","","","","","null","","57","","3","1","null","null","arrowup","[0.325,0.675,0.15,0.85]","","",""
"sailing-trial","419","1490800","0.0-11.0-384.0","","","","false","","","","","","","","","","37.5","","142","","3","1","arrowright","1","arrowright","[0.325,0.675,0.15,0.85]","","",""
"sailing-trial","420","1492544","0.0-11.0-385.0","","","","false","","","","","","","","","","null","","167.30000007152557","","0","1","null","null","arrowup","[0.325,0.675,0.15,0.85]","","",""
"sailing-trial","421","1495730","0.0-11.0-386.0","","","","false","","","","","","","","","","30.799999952316284","","534.7000000476837","","3","1","arrowright","1","arrowright","[0.325,0.675,0.15,0.85]","","",""
"sailing-trial","422","1497053","0.0-11.0-387.0","","","","false","","","","","","","","","","null","","171.20000004768372","","2","0","null","null","arrowup","[0.325,0.675,0.15,0.85]","","",""
"sailing-trial","423","1501683","0.0-11.0-388.0","","","","false","","","","","","","","","","472.60000002384186","","1582.3000000715256","","3","1","arrowright","1","arrowright","[0.325,0.675,0.15,0.85]","","",""
"sailing-trial","424","1504923","0.0-11.0-389.0","","","","false","","","","","","","","","","null","","221.29999995231628","","3","0","null","null","arrowup","[0.325,0.675,0.15,0.85]","","",""
"sailing-trial","425","1508607","0.0-11.0-390.0","","","","false","","","","","","","","","","442","","361.10000002384186","","3","1","arrowright","1","arrowright","[0.325,0.675,0.15,0.85]","","",""
"sailing-trial","426","1510432","0.0-11.0-391.0","","","","false","","","","","","","","","","null","","431.39999997615814","","1","0","null","null","arrowup","[0.325,0.675,0.15,0.85]","","",""
"sailing-trial","427","1513889","0.0-11.0-392.0","","","","false","","","","","","","","","","463.60000002384186","","163.80000007152557","","3","1","arrowright","1","arrowright","[0.325,0.675,0.15,0.85]","","",""
"sailing-trial","428","1517074","0.0-11.0-393.0","","","","false","","","","","","","","","","null","","1001","","1","1","null","null","arrowup","[0.325,0.675,0.15,0.85]","","",""
"sailing-trial","429","1520829","0.0-11.0-394.0","","","","false","","","","","","","","","","46.299999952316284","","261","","3","1","arrowright","1","arrowright","[0.325,0.675,0.15,0.85]","","",""
"sailing-trial","430","1523277","0.0-11.0-395.0","","","","false","","","","","","","","","","null","","51.299999952316284","","0","1","null","null","arrowup","[0.325,0.675,0.15,0.85]","","",""
"sailing-trial","431","1526464","0.0-11.0-396.0","","","","false","","","","","","","","","","407.5","","156","","3","1","arrowright","1","arrowright","[0.325,0.675,0.15,0.85]","","",""
"sailing-trial","432","1527509","0.0-11.0-397.0","","","","false","","","","","","","","","","null","","2","","2","0","null","null","arrowup","[0.325,0.675,0.15,0.85]","","",""
"sailing-trial","433","1530757","0.0-11.0-398.0","","","","false","","","","","","","","","","427.60000002384186","","200.40000009536743","","3","1","arrowright","1","arrowright","[0.325,0.675,0.15,0.85]","","",""
"sailing-trial","434","1532122","0.0-11.0-399.0","","","","false","","","","","","","","","","null","","219.5","","2","0","null","null","arrowup","[0.325,0.675,0.15,0.85]","","",""
"instructions","435","1536088","0.0-12.0","","","","","","","","","","3965.7000000476837","","","","","","","","","","","","","","","","[{""page_index"":0,""viewing_time"":3964.7999999523163}]"
"survey-debrief","436","1553287","0.0-13.0","","","","","","","","","","17197.099999904633","","","","","","","","","","","","","","{""difficulty"":""5"",""fun"":""4"",""clarity"":""5"",""strategy"":"""",""feedback"":""""}","",""
