"trial_type","trial_index","time_elapsed","internal_node_id","value","metadata","success","timeout","failed_images","failed_audio","failed_video","browser_interaction","low_quality","rt","stimulus","response","button_pressed","island_rt","island_response","boat_rt","boat_response","boat","reward","island_key","island","boat_key","reward_probabilities","responses","num_errors","view_history"
"pavlovia","0","4","0.0-0.0","","","","","","","","","","","","","","","","","","","","","","","","","",""
"call-function","1","4","0.0-1.0","","{""task_version"":""sailing_part1_v1"",""task_condition"":""good"",""boats"":[""B"",""D"",""A"",""C""],""boats_demo"":[""G"",""E"",""F"",""H""],""islands"":[""A"",""B""],""subject_id"":""15192"",""age"":""17"",""gender"":""Female""}","","","","","","","","","","","","","","","","","","","","","","","",""
"preload","2","2052","0.0-2.0","","","true","false","[]","[]","[]","[{""event"":""fullscreenenter"",""trial"":3,""time"":5063}]","false","","","","","","","","","","","","","","","","",""
"fullscreen","3","6045","0.0-3.0","","","true","","","","","","","","","","","","","","","","","","","","","","",""
"audio-keyboard-response","4","10809","0.0-4.0-0.0","","","","","","","","","","3600","audio/beep_loop.wav"," ","","","","","","","","","","","","","",""
"audio-test","5","14352","0.0-4.0-1.0","","","","","","","","","","null","audio/turtle.mp3","","3","","","","","","","","","","","","",""
"audio-test","6","17186","0.0-4.0-2.0","","","","","","","","","","null","audio/shark.mp3","","2","","","","","","","","","","","","",""
"sailing-instructions","7","51239","0.0-5.0-0.0-0.0","","","","","","","","","","","","","","null","null","null","null","null","null","","","","","","",""
"sailing-trial","8","55840","0.0-5.0-0.0-1.0-0.0","","","","false","","","","","","","","","","3480.5999999996275","","null","","null","null","arrowleft","0","null","null","","",""
"sailing-trial","9","58780","0.0-5.0-0.0-1.0-1.0","","","","false","","","","","","","","","","1824.5","","null","","null","null","arrowright","1","null","null","","",""
"sailing-trial","10","62047","0.0-5.0-0.0-1.0-2.0","","","","false","","","","","","","","","","2137.2999999998137","","null","","null","null","arrowleft","0","null","null","","",""
"sailing-instructions","11","102521","0.0-5.0-0.0-2.0","","","","","","","","","","","","","","null","null","null","null","0","null","","","","","","",""
"sailing-trial","12","108781","0.0-5.0-0.0-3.0-0.0","","","","false","","","","","","","","","","null","","2735.0999999996275","","2","1","null","null","arrowleft","[1,1,1,1]","","",""
"sailing-trial","13","113256","0.0-5.0-0.0-3.0-1.0","","","","false","","","","","","","","","","null","","1568.7999999998137","","3","1","null","null","arrowright","[1,1,1,1]","","",""
"sailing-trial","14","118104","0.0-5.0-0.0-3.0-2.0","","","","false","","","","","","","","","","null","","1298.199999999255","","2","0","null","null","arrowleft","[0,0,0,0]","","",""
"sailing-instructions","15","126059","0.0-5.0-0.0-4.0","","","","","","","","","","","","","","null","null","null","null","null","null","","","","","","",""
"sailing-comprehension","16","150938","0.0-5.0-0.0-5.0","","","","","","","","","","19351.799999999814","","","","","","","","","","","","","","[""true"",""true"",""false"",""true""]","0",""
"sailing-instructions","17","229529","0.0-6.0-0.0-0.0","","","","","","","","","","","","","","null","null","null","null","null","null","","","","","","",""
"sailing-comprehension","18","251638","0.0-6.0-0.0-1.0","","","","","","","","","","16595.5","","","","","","","","","","","","","","[""true"",""false"",""true""]","0",""
"sailing-instructions","19","265519","0.0-7.0-0.0-0.0","","","","","","","","","","","","","","null","null","null","null","null","null","","","","","","",""
"sailing-trial","20","270673","0.0-7.0-0.0-1.0-0.0","","","","false","","","","","","","","","","null","","2230.0999999996275","","0","0","null","null","arrowup","[0.2,0.8,0.2,0.8]","","",""
"sailing-trial","21","274632","0.0-7.0-0.0-1.0-1.0","","","","false","","","","","","","","","","null","","1581.0999999996275","","1","1","null","null","arrowup","[0.2,0.8,0.2,0.8]","","",""
"sailing-trial","22","277548","0.0-7.0-0.0-1.0-2.0","","","","false","","","","","","","","","","null","","1453.3999999994412","","2","0","null","null","arrowup","[0.2,0.8,0.2,0.8]","","",""
"sailing-trial","23","279365","0.0-7.0-0.0-1.0-3.0","","","","false","","","","","","","","","","null","","653.2000000001863","","3","0","null","null","arrowup","[0.2,0.8,0.2,0.8]","","",""
"sailing-comprehension","24","293781","0.0-7.0-0.0-2.0","","","","","","","","","","11714","","","","","","","","","","","","","","[""true""]","1",""
"sailing-instructions","25","309686","0.0-7.0-0.1-0.1","","","","","","","","","","","","","","null","null","null","null","null","null","","","","","","",""
"sailing-trial","26","312996","0.0-7.0-0.1-1.1-0.1","","","","false","","","","","","","","","","null","","1647.7999999998137","","0","0","null","null","arrowup","[0.2,0.8,0.2,0.8]","","",""
"sailing-trial","27","316129","0.0-7.0-0.1-1.1-1.1","","","","false","","","","","","","","","","null","","515.9000000003725","","1","1","null","null","arrowup","[0.2,0.8,0.2,0.8]","","",""
"sailing-trial","28","317916","0.0-7.0-0.1-1.1-2.1","","","","false","","","","","","","","","","null","","463.79999999981374","","2","0","null","null","arrowup","[0.2,0.8,0.2,0.8]","","",""
"sailing-trial","29","320779","0.0-7.0-0.1-1.1-3.1","","","","false","","","","","","","","","","null","","432.09999999962747","","3","1","null","null","arrowup","[0.2,0.8,0.2,0.8]","","",""
"sailing-comprehension","30","328862","0.0-7.0-0.1-2.1","","","","","","","","","","6559.200000000186","","","","","","","","","","","","","","[""false""]","0",""
"sailing-instructions","31","340242","0.0-8.0-0.0-0.0","","","","","","","","","","","","","","null","null","null","null","null","null","","","","","","",""
"sailing-comprehension","32","346399","0.0-8.0-0.0-1.0","","","","","","","","","","3171.800000000745","","","","","","","","","","","","","","[""true""]","0",""
"sailing-instructions","33","380182","0.0-9.0-0.0-0.0","","","","","","","","","","","","","","null","null","null","null","null","null","","","","","","",""
"sailing-trial","34","385566","0.0-9.0-0.0-1.0-0.0","","","","false","","","","","","","","","","1775.7999999998137","","86.90000000037253","","3","0","arrowright","1","arrowright","[0.2,0.8,0.2,0.8]","","",""
"sailing-trial","35","389700","0.0-9.0-0.0-1.0-1.0","","","","false","","","","","","","","","","738.5999999996275","","303.30000000074506","","0","0","arrowleft","0","arrowleft","[0.2,0.8,0.2,0.8]","","",""
"sailing-trial","36","392648","0.0-9.0-0.0-1.0-2.0","","","","false","","","","","","","","","","null","","1582.199999999255","","0","0","null","null","arrowup","[0.2,0.8,0.2,0.8]","","",""
"sailing-trial","37","398347","0.0-9.0-0.0-1.0-3.0","","","","false","","","","","","","","","","1607.5","","1132.9000000003725","","2","0","arrowright","1","arrowleft","[0.2,0.8,0.2,0.8]","","",""
"sailing-trial","38","402329","0.0-9.0-0.0-1.0-4.0","","","","false","","","","","","","","","","null","","1665","","3","1","null","null","arrowup","[0.2,0.8,0.2,0.8]","","",""
"sailing-trial","39","405396","0.0-9.0-0.0-1.0-5.0","","","","false","","","","","","","","","","738.5999999996275","","164.3999999994412","","1","0","arrowleft","0","arrowright","[0.2,0.8,0.2,0.8]","","",""
"sailing-instructions","40","438468","0.0-10.0","","","","","","","","","","","","","","null","null","null","null","null","null","","","","","","",""
"sailing-trial","41","444994","0.0-11.0-0.0","","","","false","","","","","","","","","","3011.2999999998137","","487.09999999962747","","3","0","arrowright","1","arrowright","[0.85,0.15,0.675,0.325]","","",""
"sailing-trial","42","448586","0.0-11.0-1.0","","","","false","","","","","","","","","","null","","1337.300000000745","","2","0","null","null","arrowup","[0.85,0.15,0.675,0.325]","","",""
"sailing-trial","43","452895","0.0-11.0-2.0","","","","false","","","","","","","","","","610.3000000007451","","885.7999999998137","","0","1","arrowleft","0","arrowleft","[0.85,0.15,0.675,0.325]","","",""
"sailing-trial","44","456570","0.0-11.0-3.0","","","","false","","","","","","","","","","null","","1045.6000000005588","","3","0","null","null","arrowup","[0.85,0.15,0.675,0.325]","","",""
"sailing-trial","45","461255","0.0-11.0-4.0","","","","false","","","","","","","","","","567.0999999996275","","980.7000000001863","","3","1","arrowright","1","arrowright","[0.85,0.15,0.675,0.325]","","",""
"sailing-trial","46","464246","0.0-11.0-5.0","","","","false","","","","","","","","","","null","","1216.8999999994412","","2","1","null","null","arrowup","[0.85,0.15,0.675,0.325]","","",""
"sailing-trial","47","469135","0.0-11.0-6.0","","","","false","","","","","","","","","","596.3999999994412","","1240.6000000005588","","1","0","arrowleft","0","arrowright","[0.85,0.15,0.675,0.325]","","",""
"sailing-trial","48","471564","0.0-11.0-7.0","","","","false","","","","","","","","","","null","","1216.9000000003725","","1","0","null","null","arrowup","[0.85,0.15,0.675,0.325]","","",""
"sailing-trial","49","475462","0.0-11.0-8.0","","","","false","","","","","","","","","","646.7999999998137","","591.3000000007451","","2","1","arrowright","1","arrowleft","[0.85,0.15,0.675,0.325]","","",""
"sailing-trial","50","478394","0.0-11.0-9.0","","","","false","","","","","","","","","","null","","1190.7000000001863","","2","0","null","null","arrowup","[0.85,0.15,0.675,0.325]","","",""
"sailing-trial","51","482530","0.0-11.0-10.0","","","","false","","","","","","","","","","472.1000000005588","","230.8999999994412","","2","0","arrowright","1","arrowleft","[0.85,0.15,0.675,0.325]","","",""
"sailing-trial","52","485234","0.0-11.0-11.0","","","","false","","","","","","","","","","null","","981.3000000007451","","1","1","null","null","arrowup","[0.85,0.15,0.675,0.325]","","",""
"sailing-trial","53","488325","0.0-11.0-12.0","","","","false","","","","","","","","","","485","","483.20000000018626","","3","0","arrowright","1","arrowright","[0.85,0.15,0.675,0.325]","","",""
"sailing-trial","54","491451","0.0-11.0-13.0","","","","false","","","","","","","","","","null","","1228.4000000003725","","1","0","null","null","arrowup","[0.85,0.15,0.675,0.325]","","",""
"sailing-trial","55","494510","0.0-11.0-14.0","","","","false","","","","","","","","","","373","","513","","0","0","arrowleft","0","arrowleft","[0.85,0.15,0.675,0.325]","","",""
"sailing-trial","56","498519","0.0-11.0-15.0","","","","false","","","","","","","","","","null","","981.5","","1","0","null","null","arrowup","[0.85,0.15,0.675,0.325]","","",""
"sailing-trial","57","502339","0.0-11.0-16.0","","","","false","","","","","","","","","","713.9000000003725","","362.09999999962747","","2","0","arrowright","1","arrowleft","[0.85,0.15,0.675,0.325]","","",""
"sailing-trial","58","505717","0.0-11.0-17.0","","","","false","","","","","","","","","","null","","995.5","","0","1","null","null","arrowup","[0.85,0.15,0.675,0.325]","","",""
"sailing-trial","59","510342","0.0-11.0-18.0","","","","false","","","","","","","","","","597","","1043.8999999994412","","3","0","arrowright","1","arrowright","[0.85,0.15,0.675,0.325]","","",""
"sailing-trial","60","513618","0.0-11.0-19.0","","","","false","","","","","","","","","","null","","1053.7000000001863","","0","1","null","null","arrowup","[0.85,0.15,0.675,0.325]","","",""
"sailing-trial","61","517023","0.0-11.0-20.0","","","","false","","","","","","","","","","399.79999999981374","","14.299999999813735","","0","1","arrowleft","0","arrowleft","[0.675,0.325,0.85,0.15]","","",""
"sailing-trial","62","520128","0.0-11.0-21.0","","","","false","","","","","","","","","","null","","1136.6000000005588","","2","1","null","null","arrowup","[0.675,0.325,0.85,0.15]","","",""
"sailing-trial","63","523975","0.0-11.0-22.0","","","","false","","","","","","","","","","512.0999999996275","","392.20000000018626","","1","0","arrowleft","0","arrowright","[0.675,0.325,0.85,0.15]","","",""
"sailing-trial","64","526859","0.0-11.0-23.0","","","","false","","","","","","","","","","null","","898.2000000001863","","1","1","null","null","arrowup","[0.675,0.325,0.85,0.15]","","",""
"sailing-trial","65","530443","0.0-11.0-24.0","","","","false","","","","","","","","","","621.5999999996275","","396.80000000074506","","0","1","arrowleft","0","arrowleft","[0.675,0.325,0.85,0.15]","","",""
"sailing-trial","66","533581","0.0-11.0-25.0","","","","false","","","","","","","","","","null","","1274.300000000745","","3","0","null","null","arrowup","[0.675,0.325,0.85,0.15]","","",""
"sailing-trial","67","537383","0.0-11.0-26.0","","","","false","","","","","","","","","","384.20000000018626","","584.1000000005588","","3","0","arrowright","1","arrowright","[0.675,0.325,0.85,0.15]","","",""
"sailing-trial","68","540799","0.0-11.0-27.0","","","","false","","","","","","","","","","null","","1218.2999999998137","","0","0","null","null","arrowup","[0.675,0.325,0.85,0.15]","","",""
"sailing-trial","69","543943","0.0-11.0-28.0","","","","false","","","","","","","","","","650.2999999998137","","311.1000000005588","","0","0","arrowleft","0","arrowleft","[0.675,0.325,0.85,0.15]","","",""
"sailing-trial","70","546734","0.0-11.0-29.0","","","","false","","","","","","","","","","null","","1047.0999999996275","","2","1","null","null","arrowup","[0.675,0.325,0.85,0.15]","","",""
"sailing-trial","71","549606","0.0-11.0-30.0","","","","false","","","","","","","","","","519","","247","","1","0","arrowleft","0","arrowright","[0.675,0.325,0.85,0.15]","","",""
"sailing-trial","72","552360","0.0-11.0-31.0","","","","false","","","","","","","","","","null","","897.7000000001863","","2","1","null","null","arrowup","[0.675,0.325,0.85,0.15]","","",""
"sailing-trial","73","555667","0.0-11.0-32.0","","","","false","","","","","","","","","","193.09999999962747","","446.79999999981374","","2","1","arrowright","1","arrowleft","[0.675,0.325,0.85,0.15]","","",""
"sailing-trial","74","558681","0.0-11.0-33.0","","","","false","","","","","","","","","","null","","1393.5","","3","0","null","null","arrowup","[0.675,0.325,0.85,0.15]","","",""
"sailing-trial","75","561914","0.0-11.0-34.0","","","","false","","","","","","","","","","703.1999999992549","","223.80000000074506","","3","0","arrowright","1","arrowright","[0.675,0.325,0.85,0.15]","","",""
"sailing-trial","76","564040","0.0-11.0-35.0","","","","false","","","","","","","","","","null","","974.9000000003725","","0","0","null","null","arrowup","[0.675,0.325,0.85,0.15]","","",""
"sailing-trial","77","567935","0.0-11.0-36.0","","","","false","","","","","","","","","","500.20000000018626","","326.70000000018626","","0","1","arrowleft","0","arrowleft","[0.85,0.15,0.675,0.325]","","",""
"sailing-trial","78","573231","0.0-11.0-37.0","","","","false","","","","","","","","","","null","","3267.0999999996275","","3","1","null","null","arrowup","[0.85,0.15,0.675,0.325]","","",""
"sailing-trial","79","577757","0.0-11.0-38.0","","","","false","","","","","","","","","","751","","1002.7999999998137","","2","0","arrowright","1","arrowleft","[0.85,0.15,0.675,0.325]","","",""
"sailing-trial","80","580490","0.0-11.0-39.0","","","","false","","","","","","","","","","null","","788.3999999994412","","1","0","null","null","arrowup","[0.85,0.15,0.675,0.325]","","",""
"sailing-trial","81","584259","0.0-11.0-40.0","","","","false","","","","","","","","","","712.6000000005588","","293.80000000074506","","0","1","arrowleft","0","arrowleft","[0.85,0.15,0.675,0.325]","","",""
"sailing-trial","82","586708","0.0-11.0-41.0","","","","false","","","","","","","","","","null","","582.5","","0","1","null","null","arrowup","[0.85,0.15,0.675,0.325]","","",""
"sailing-trial","83","590942","0.0-11.0-42.0","","","","false","","","","","","","","","","707.2000000001863","","659.7999999998137","","0","1","arrowleft","0","arrowleft","[0.85,0.15,0.675,0.325]","","",""
"sailing-trial","84","596534","0.0-11.0-43.0","","","","false","","","","","","","","","","null","","3080.899999999441","","2","1","null","null","arrowup","[0.85,0.15,0.675,0.325]","","",""
"sailing-trial","85","600208","0.0-11.0-44.0","","","","false","","","","","","","","","","757.7999999998137","","45.40000000037253","","0","1","arrowleft","0","arrowleft","[0.85,0.15,0.675,0.325]","","",""
"sailing-trial","86","604262","0.0-11.0-45.0","","","","false","","","","","","","","","","null","","2841.4000000003725","","1","0","null","null","arrowup","[0.85,0.15,0.675,0.325]","","",""
"sailing-trial","87","607875","0.0-11.0-46.0","","","","false","","","","","","","","","","737.2000000001863","","237.40000000037253","","0","1","arrowleft","0","arrowleft","[0.85,0.15,0.675,0.325]","","",""
"sailing-trial","88","610548","0.0-11.0-47.0","","","","false","","","","","","","","","","null","","1412.5","","3","0","null","null","arrowup","[0.85,0.15,0.675,0.325]","","",""
"sailing-trial","89","614565","0.0-11.0-48.0","","","","false","","","","","","","","","","509.1000000005588","","478.90000000037253","","0","1","arrowleft","0","arrowleft","[0.85,0.15,0.675,0.325]","","",""
"sailing-trial","90","617113","0.0-11.0-49.0","","","","false","","","","","","","","","","null","","1178","","1","0","null","null","arrowup","[0.85,0.15,0.675,0.325]","","",""
"sailing-trial","91","622762","0.0-11.0-50.0","","","","false","","","","","","","","","","2828.5","","1.800000000745058","","0","1","arrowleft","0","arrowleft","[0.85,0.15,0.675,0.325]","","",""
"sailing-trial","92","625156","0.0-11.0-51.0","","","","false","","","","","","","","","","null","","1207.699999999255","","2","0","null","null","arrowup","[0.85,0.15,0.675,0.325]","","",""
"sailing-trial","93","629283","0.0-11.0-52.0","","","","false","","","","","","","","","","629.8999999994412","","672.7999999998137","","0","1","arrowleft","0","arrowleft","[0.85,0.15,0.675,0.325]","","",""
"sailing-trial","94","633179","0.0-11.0-53.0","","","","false","","","","","","","","","","null","","1417.1000000005588","","1","0","null","null","arrowup","[0.85,0.15,0.675,0.325]","","",""
"sailing-trial","95","636607","0.0-11.0-54.0","","","","false","","","","","","","","","","535","","285.8999999994412","","0","1","arrowleft","0","arrowleft","[0.675,0.325,0.85,0.15]","","",""
"sailing-trial","96","640172","0.0-11.0-55.0","","","","false","","","","","","","","","","null","","1310.2000000001863","","1","0","null","null","arrowup","[0.675,0.325,0.85,0.15]","","",""
"sailing-trial","97","644840","0.0-11.0-56.0","","","","false","","","","","","","","","","1366.2999999998137","","219.29999999981374","","0","0","arrowleft","0","arrowleft","[0.675,0.325,0.85,0.15]","","",""
"sailing-trial","98","647724","0.0-11.0-57.0","","","","false","","","","","","","","","","null","","1131.1000000005588","","1","1","null","null","arrowup","[0.675,0.325,0.85,0.15]","","",""
"sailing-trial","99","652348","0.0-11.0-58.0","","","","false","","","","","","","","","","389.09999999962747","","191.40000000037253","","1","0","arrowleft","0","arrowright","[0.675,0.325,0.85,0.15]","","",""
"sailing-trial","100","655012","0.0-11.0-59.0","","","","false","","","","","","","","","","null","","835","","0","1","null","null","arrowup","[0.675,0.325,0.85,0.15]","","",""
"sailing-trial","101","659889","0.0-11.0-60.0","","","","false","","","","","","","","","","659.2999999998137","","171.1000000005588","","0","0","arrowleft","0","arrowleft","[0.675,0.325,0.85,0.15]","","",""
"sailing-trial","102","662858","0.0-11.0-61.0","","","","false","","","","","","","","","","null","","1151.7999999998137","","0","1","null","null","arrowup","[0.675,0.325,0.85,0.15]","","",""
"sailing-trial","103","667291","0.0-11.0-62.0","","","","false","","","","","","","","","","1149.0999999996275","","462","","0","1","arrowleft","0","arrowleft","[0.675,0.325,0.85,0.15]","","",""
"sailing-trial","104","672247","0.0-11.0-63.0","","","","false","","","","","","","","","","null","","3814.2999999998137","","3","0","null","null","arrowup","[0.675,0.325,0.85,0.15]","","",""
"sailing-trial","105","676470","0.0-11.0-64.0","","","","false","","","","","","","","","","948.4000000003725","","478.29999999981374","","0","1","arrowleft","0","arrowleft","[0.675,0.325,0.85,0.15]","","",""
"sailing-trial","106","679679","0.0-11.0-65.0","","","","false","","","","","","","","","","null","","1525.199999999255","","2","0","null","null","arrowup","[0.675,0.325,0.85,0.15]","","",""
"sailing-trial","107","683085","0.0-11.0-66.0","","","","false","","","","","","","","","","452.79999999981374","","76","","3","0","arrowright","1","arrowright","[0.675,0.325,0.85,0.15]","","",""
"sailing-trial","108","685364","0.0-11.0-67.0","","","","false","","","","","","","","","","null","","963.9000000003725","","1","0","null","null","arrowup","[0.675,0.325,0.85,0.15]","","",""
"sailing-trial","109","688746","0.0-11.0-68.0","","","","false","","","","","","","","","","522.4000000003725","","14.100000000558794","","0","1","arrowleft","0","arrowleft","[0.675,0.325,0.85,0.15]","","",""
"sailing-trial","110","691078","0.0-11.0-69.0","","","","false","","","","","","","","","","null","","1045.5999999996275","","1","0","null","null","arrowup","[0.675,0.325,0.85,0.15]","","",""
"sailing-trial","111","694640","0.0-11.0-70.0","","","","false","","","","","","","","","","428.79999999981374","","206","","0","1","arrowleft","0","arrowleft","[0.85,0.15,0.675,0.325]","","",""
"sailing-trial","112","697237","0.0-11.0-71.0","","","","false","","","","","","","","","","null","","832.1999999992549","","2","0","null","null","arrowup","[0.85,0.15,0.675,0.325]","","",""
"sailing-trial","113","700555","0.0-11.0-72.0","","","","false","","","","","","","","","","586.2999999998137","","180.69999999925494","","0","1","arrowleft","0","arrowleft","[0.85,0.15,0.675,0.325]","","",""
"sailing-trial","114","703829","0.0-11.0-73.0","","","","false","","","","","","","","","","null","","1481.300000000745","","3","1","null","null","arrowup","[0.85,0.15,0.675,0.325]","","",""
"sailing-trial","115","707672","0.0-11.0-74.0","","","","false","","","","","","","","","","486.20000000018626","","139.09999999962747","","0","0","arrowleft","0","arrowleft","[0.85,0.15,0.675,0.325]","","",""
"sailing-trial","116","710571","0.0-11.0-75.0","","","","false","","","","","","","","","","null","","883.3000000007451","","1","1","null","null","arrowup","[0.85,0.15,0.675,0.325]","","",""
"sailing-trial","117","714614","0.0-11.0-76.0","","","","false","","","","","","","","","","827.8999999994412","","9.799999999813735","","3","1","arrowright","1","arrowright","[0.85,0.15,0.675,0.325]","","",""
"sailing-trial","118","717383","0.0-11.0-77.0","","","","false","","","","","","","","","","null","","953.2999999998137","","0","1","null","null","arrowup","[0.85,0.15,0.675,0.325]","","",""
"sailing-trial","119","720602","0.0-11.0-78.0","","","","false","","","","","","","","","","630.2000000001863","","457","","0","0","arrowleft","0","arrowleft","[0.85,0.15,0.675,0.325]","","",""
"sailing-trial","120","723187","0.0-11.0-79.0","","","","false","","","","","","","","","","null","","815.9000000003725","","0","1","null","null","arrowup","[0.85,0.15,0.675,0.325]","","",""
"sailing-trial","121","725977","0.0-11.0-80.0","","","","false","","","","","","","","","","413.6000000005588","","151.20000000018626","","3","0","arrowright","1","arrowright","[0.85,0.15,0.675,0.325]","","",""
"sailing-trial","122","727921","0.0-11.0-81.0","","","","false","","","","","","","","","","null","","843.6000000005588","","1","0","null","null","arrowup","[0.85,0.15,0.675,0.325]","","",""
"sailing-trial","123","731518","0.0-11.0-82.0","","","","false","","","","","","","","","","585.8999999994412","","498","","1","0","arrowleft","0","arrowright","[0.85,0.15,0.675,0.325]","","",""
"sailing-trial","124","734295","0.0-11.0-83.0","","","","false","","","","","","","","","","null","","935.7000000001863","","2","1","null","null","arrowup","[0.85,0.15,0.675,0.325]","","",""
"sailing-trial","125","737494","0.0-11.0-84.0","","","","false","","","","","","","","","","314.90000000037253","","88.90000000037253","","2","1","arrowright","1","arrowleft","[0.85,0.15,0.675,0.325]","","",""
"sailing-trial","126","740002","0.0-11.0-85.0","","","","false","","","","","","","","","","null","","861","","1","0","null","null","arrowup","[0.85,0.15,0.675,0.325]","","",""
"sailing-trial","127","743321","0.0-11.0-86.0","","","","false","","","","","","","","","","320.6000000005588","","179.8999999994412","","2","1","arrowright","1","arrowleft","[0.675,0.325,0.85,0.15]","","",""
"sailing-trial","128","745668","0.0-11.0-87.0","","","","false","","","","","","","","","","null","","1118.1000000005588","","3","0","null","null","arrowup","[0.675,0.325,0.85,0.15]","","",""
"sailing-trial","129","749136","0.0-11.0-88.0","","","","false","","","","","","","","","","510.79999999981374","","317.3999999994412","","2","0","arrowright","1","arrowleft","[0.675,0.325,0.85,0.15]","","",""
"sailing-trial","130","751343","0.0-11.0-89.0","","","","false","","","","","","","","","","null","","872.0999999996275","","3","0","null","null","arrowup","[0.675,0.325,0.85,0.15]","","",""
"sailing-trial","131","754829","0.0-11.0-90.0","","","","false","","","","","","","","","","369.70000000018626","","362.79999999981374","","0","1","arrowleft","0","arrowleft","[0.675,0.325,0.85,0.15]","","",""
"sailing-trial","132","757662","0.0-11.0-91.0","","","","false","","","","","","","","","","null","","1091.2000000001863","","2","1","null","null","arrowup","[0.675,0.325,0.85,0.15]","","",""
"sailing-trial","133","762375","0.0-11.0-92.0","","","","false","","","","","","","","","","518.7999999998137","","1358.5","","0","1","arrowleft","0","arrowleft","[0.675,0.325,0.85,0.15]","","",""
"sailing-trial","134","764644","0.0-11.0-93.0","","","","false","","","","","","","","","","null","","1000.8999999994412","","1","0","null","null","arrowup","[0.675,0.325,0.85,0.15]","","",""
"sailing-trial","135","769144","0.0-11.0-94.0","","","","false","","","","","","","","","","649.3999999994412","","253.3999999994412","","1","0","arrowleft","0","arrowright","[0.675,0.325,0.85,0.15]","","",""
"sailing-trial","136","771290","0.0-11.0-95.0","","","","false","","","","","","","","","","null","","878.7999999998137","","3","0","null","null","arrowup","[0.675,0.325,0.85,0.15]","","",""
"sailing-trial","137","774781","0.0-11.0-96.0","","","","false","","","","","","","","","","610.3999999994412","","103.40000000037253","","0","1","arrowleft","0","arrowleft","[0.675,0.325,0.85,0.15]","","",""
"sailing-trial","138","777714","0.0-11.0-97.0","","","","false","","","","","","","","","","null","","1556.4000000003725","","0","0","null","null","arrowup","[0.675,0.325,0.85,0.15]","","",""
"sailing-trial","139","782448","0.0-11.0-98.0","","","","false","","","","","","","","","","535.8999999994412","","168.20000000018626","","0","0","arrowleft","0","arrowleft","[0.675,0.325,0.85,0.15]","","",""
"sailing-trial","140","785062","0.0-11.0-99.0","","","","false","","","","","","","","","","null","","801.3000000007451","","2","1","null","null","arrowup","[0.675,0.325,0.85,0.15]","","",""
"sailing-trial","141","789091","0.0-11.0-100.0","","","","false","","","","","","","","","","621.1000000005588","","505.09999999962747","","2","1","arrowright","1","arrowleft","[0.675,0.325,0.85,0.15]","","",""
"sailing-trial","142","792615","0.0-11.0-101.0","","","","false","","","","","","","","","","null","","1947.7000000001863","","1","0","null","null","arrowup","[0.675,0.325,0.85,0.15]","","",""
"sailing-trial","143","796862","0.0-11.0-102.0","","","","false","","","","","","","","","","600.5999999996275","","290.29999999981374","","0","0","arrowleft","0","arrowleft","[0.15,0.85,0.325,0.675]","","",""
"sailing-trial","144","799889","0.0-11.0-103.0","","","","false","","","","","","","","","","null","","1064.699999999255","","2","0","null","null","arrowup","[0.15,0.85,0.325,0.675]","","",""
"sailing-trial","145","803274","0.0-11.0-104.0","","","","false","","","","","","","","","","655.2999999998137","","12.100000000558794","","3","1","arrowright","1","arrowright","[0.15,0.85,0.325,0.675]","","",""
"sailing-trial","146","805122","0.0-11.0-105.0","","","","false","","","","","","","","","","null","","709.2000000001863","","1","0","null","null","arrowup","[0.15,0.85,0.325,0.675]","","",""
"sailing-trial","147","808865","0.0-11.0-106.0","","","","false","","","","","","","","","","394.90000000037253","","373.20000000018626","","3","0","arrowright","1","arrowright","[0.15,0.85,0.325,0.675]","","",""
"sailing-trial","148","811539","0.0-11.0-107.0","","","","false","","","","","","","","","","null","","963.0999999996275","","0","0","null","null","arrowup","[0.15,0.85,0.325,0.675]","","",""
"sailing-trial","149","815258","0.0-11.0-108.0","","","","false","","","","","","","","","","457.5","","376.19999999925494","","2","1","arrowright","1","arrowleft","[0.15,0.85,0.325,0.675]","","",""
"sailing-trial","150","817383","0.0-11.0-109.0","","","","false","","","","","","","","","","null","","849.8999999994412","","3","0","null","null","arrowup","[0.15,0.85,0.325,0.675]","","",""
"sailing-trial","151","820381","0.0-11.0-110.0","","","","false","","","","","","","","","","446.90000000037253","","256.20000000018626","","2","0","arrowright","1","arrowleft","[0.15,0.85,0.325,0.675]","","",""
"sailing-trial","152","823002","0.0-11.0-111.0","","","","false","","","","","","","","","","null","","836.7999999998137","","1","1","null","null","arrowup","[0.15,0.85,0.325,0.675]","","",""
"sailing-trial","153","826768","0.0-11.0-112.0","","","","false","","","","","","","","","","611.3999999994412","","330.5","","2","1","arrowright","1","arrowleft","[0.15,0.85,0.325,0.675]","","",""
"sailing-trial","154","829952","0.0-11.0-113.0","","","","false","","","","","","","","","","null","","1383.5999999996275","","3","1","null","null","arrowup","[0.15,0.85,0.325,0.675]","","",""
"sailing-trial","155","833192","0.0-11.0-114.0","","","","false","","","","","","","","","","583.4000000003725","","71.90000000037253","","2","0","arrowright","1","arrowleft","[0.15,0.85,0.325,0.675]","","",""
"sailing-trial","156","835271","0.0-11.0-115.0","","","","false","","","","","","","","","","null","","857.9000000003725","","2","0","null","null","arrowup","[0.15,0.85,0.325,0.675]","","",""
"sailing-trial","157","838893","0.0-11.0-116.0","","","","false","","","","","","","","","","373.3999999994412","","388.5","","2","1","arrowright","1","arrowleft","[0.15,0.85,0.325,0.675]","","",""
"sailing-trial","158","843268","0.0-11.0-117.0","","","","false","","","","","","","","","","null","","2432.0999999996275","","0","1","null","null","arrowup","[0.15,0.85,0.325,0.675]","","",""
"sailing-trial","159","846934","0.0-11.0-118.0","","","","false","","","","","","","","","","1047.1000000005588","","212.09999999962747","","0","0","arrowleft","0","arrowleft","[0.15,0.85,0.325,0.675]","","",""
"sailing-trial","160","849041","0.0-11.0-119.0","","","","false","","","","","","","","","","null","","698.7999999998137","","0","0","null","null","arrowup","[0.15,0.85,0.325,0.675]","","",""
"sailing-trial","161","851685","0.0-11.0-120.0","","","","false","","","","","","","","","","424.5","","149.29999999981374","","2","0","arrowright","1","arrowleft","[0.15,0.85,0.325,0.675]","","",""
"sailing-trial","162","853856","0.0-11.0-121.0","","","","false","","","","","","","","","","null","","752.5","","2","0","null","null","arrowup","[0.15,0.85,0.325,0.675]","","",""
"sailing-trial","163","857135","0.0-11.0-122.0","","","","false","","","","","","","","","","479.29999999981374","","1.5","","3","1","arrowright","1","arrowright","[0.325,0.675,0.15,0.85]","","",""
"sailing-trial","164","859224","0.0-11.0-123.0","","","","false","","","","","","","","","","null","","865.5999999996275","","0","0","null","null","arrowup","[0.325,0.675,0.15,0.85]","","",""
"sailing-trial","165","863010","0.0-11.0-124.0","","","","false","","","","","","","","","","411.69999999925494","","396.29999999981374","","3","1","arrowright","1","arrowright","[0.325,0.675,0.15,0.85]","","",""
"sailing-trial","166","864807","0.0-11.0-125.0","","","","false","","","","","","","","","","null","","533.1000000005588","","2","0","null","null","arrowup","[0.325,0.675,0.15,0.85]","","",""
"sailing-trial","167","868248","0.0-11.0-126.0","","","","false","","","","","","","","","","370","","161.70000000018626","","3","1","arrowright","1","arrowright","[0.325,0.675,0.15,0.85]","","",""
"sailing-trial","168","870476","0.0-11.0-127.0","","","","false","","","","","","","","","","null","","828.4000000003725","","2","0","null","null","arrowup","[0.325,0.675,0.15,0.85]","","",""
"sailing-trial","169","873626","0.0-11.0-128.0","","","","false","","","","","","","","","","437.90000000037253","","144.30000000074506","","3","0","arrowright","1","arrowright","[0.325,0.675,0.15,0.85]","","",""
"sailing-trial","170","876701","0.0-11.0-129.0","","","","false","","","","","","","","","","null","","869.9000000003725","","0","1","null","null","arrowup","[0.325,0.675,0.15,0.85]","","",""
"sailing-trial","171","879331","0.0-11.0-130.0","","","","false","","","","","","","","","","177.09999999962747","","286.20000000018626","","0","0","arrowleft","0","arrowleft","[0.325,0.675,0.15,0.85]","","",""
"sailing-trial","172","881883","0.0-11.0-131.0","","","","false","","","","","","","","","","null","","783","","2","0","null","null","arrowup","[0.325,0.675,0.15,0.85]","","",""
"sailing-trial","173","886121","0.0-11.0-132.0","","","","false","","","","","","","","","","856.7999999998137","","412.6000000005588","","2","1","arrowright","1","arrowleft","[0.325,0.675,0.15,0.85]","","",""
"sailing-trial","174","888388","0.0-11.0-133.0","","","","false","","","","","","","","","","null","","265.5","","3","1","null","null","arrowup","[0.325,0.675,0.15,0.85]","","",""
"sailing-trial","175","891677","0.0-11.0-134.0","","","","false","","","","","","","","","","574.9000000003725","","130","","2","0","arrowright","1","arrowleft","[0.325,0.675,0.15,0.85]","","",""
"sailing-trial","176","894084","0.0-11.0-135.0","","","","false","","","","","","","","","","null","","956.5","","0","0","null","null","arrowup","[0.325,0.675,0.15,0.85]","","",""
"sailing-trial","177","898004","0.0-11.0-136.0","","","","false","","","","","","","","","","620.2999999998137","","228.8999999994412","","0","1","arrowleft","0","arrowleft","[0.325,0.675,0.15,0.85]","","",""
"sailing-trial","178","900127","0.0-11.0-137.0","","","","false","","","","","","","","","","null","","994.2000000001863","","1","0","null","null","arrowup","[0.325,0.675,0.15,0.85]","","",""
"sailing-trial","179","904070","0.0-11.0-138.0","","","","false","","","","","","","","","","608.0999999996275","","254.90000000037253","","1","1","arrowleft","0","arrowright","[0.15,0.85,0.325,0.675]","","",""
"sailing-trial","180","906230","0.0-11.0-139.0","","","","false","","","","","","","","","","null","","820","","0","0","null","null","arrowup","[0.15,0.85,0.325,0.675]","","",""
"sailing-trial","181","908937","0.0-11.0-140.0","","","","false","","","","","","","","","","463.90000000037253","","49.700000000186265","","0","0","arrowleft","0","arrowleft","[0.15,0.85,0.325,0.675]","","",""
"sailing-trial","182","912462","0.0-11.0-141.0","","","","false","","","","","","","","","","null","","1762.9000000003725","","2","1","null","null","arrowup","[0.15,0.85,0.325,0.675]","","",""
"sailing-trial","183","915810","0.0-11.0-142.0","","","","false","","","","","","","","","","839.5999999996275","","99.79999999981374","","0","0","arrowleft","0","arrowleft","[0.15,0.85,0.325,0.675]","","",""
"sailing-trial","184","919075","0.0-11.0-143.0","","","","false","","","","","","","","","","null","","1199.4000000003725","","1","1","null","null","arrowup","[0.15,0.85,0.325,0.675]","","",""
"sailing-trial","185","922302","0.0-11.0-144.0","","","","false","","","","","","","","","","600.7999999998137","","413.5","","0","0","arrowleft","0","arrowleft","[0.15,0.85,0.325,0.675]","","",""
"sailing-trial","186","924893","0.0-11.0-145.0","","","","false","","","","","","","","","","null","","905.8000000007451","","3","1","null","null","arrowup","[0.15,0.85,0.325,0.675]","","",""
"sailing-trial","187","928070","0.0-11.0-146.0","","","","false","","","","","","","","","","157.59999999962747","","38.60000000055879","","2","1","arrowright","1","arrowleft","[0.15,0.85,0.325,0.675]","","",""
"sailing-trial","188","931945","0.0-11.0-147.0","","","","false","","","","","","","","","","null","","2139.7000000001863","","1","1","null","null","arrowup","[0.15,0.85,0.325,0.675]","","",""
"sailing-trial","189","934618","0.0-11.0-148.0","","","","false","","","","","","","","","","49.09999999962747","","264","","0","0","arrowleft","0","arrowleft","[0.15,0.85,0.325,0.675]","","",""
"sailing-trial","190","936633","0.0-11.0-149.0","","","","false","","","","","","","","","","null","","719.4000000003725","","2","0","null","null","arrowup","[0.15,0.85,0.325,0.675]","","",""
"sailing-trial","191","939583","0.0-11.0-150.0","","","","false","","","","","","","","","","584.7999999998137","","66.5","","2","0","arrowright","1","arrowleft","[0.15,0.85,0.325,0.675]","","",""
"sailing-trial","192","942574","0.0-11.0-151.0","","","","false","","","","","","","","","","null","","883.4000000003725","","1","0","null","null","arrowup","[0.15,0.85,0.325,0.675]","","",""
"sailing-trial","193","946032","0.0-11.0-152.0","","","","false","","","","","","","","","","391.29999999981374","","101.6000000005588","","3","1","arrowright","1","arrowright","[0.15,0.85,0.325,0.675]","","",""
"sailing-trial","194","949318","0.0-11.0-153.0","","","","false","","","","","","","","","","null","","964.2999999998137","","3","1","null","null","arrowup","[0.15,0.85,0.325,0.675]","","",""
"sailing-trial","195","953316","0.0-11.0-154.0","","","","false","","","","","","","","","","486.70000000018626","","732.8999999994412","","3","1","arrowright","1","arrowright","[0.325,0.675,0.15,0.85]","","",""
"sailing-trial","196","955299","0.0-11.0-155.0","","","","false","","","","","","","","","","null","","718.2000000001863","","2","0","null","null","arrowup","[0.325,0.675,0.15,0.85]","","",""
"sailing-trial","197","958419","0.0-11.0-156.0","","","","false","","","","","","","","","","385","","8","","3","1","arrowright","1","arrowright","[0.325,0.675,0.15,0.85]","","",""
"sailing-trial","198","960716","0.0-11.0-157.0","","","","false","","","","","","","","","","null","","957.2999999998137","","2","0","null","null","arrowup","[0.325,0.675,0.15,0.85]","","",""
"sailing-trial","199","963768","0.0-11.0-158.0","","","","false","","","","","","","","","","179.6000000005588","","86.29999999981374","","3","1","arrowright","1","arrowright","[0.325,0.675,0.15,0.85]","","",""
"sailing-trial","200","965268","0.0-11.0-159.0","","","","false","","","","","","","","","","null","","74.79999999981374","","3","0","null","null","arrowup","[0.325,0.675,0.15,0.85]","","",""
"sailing-trial","201","968633","0.0-11.0-160.0","","","","false","","","","","","","","","","148.19999999925494","","142.79999999981374","","3","1","arrowright","1","arrowright","[0.325,0.675,0.15,0.85]","","",""
"sailing-trial","202","970951","0.0-11.0-161.0","","","","false","","","","","","","","","","null","","1064.4000000003725","","1","0","null","null","arrowup","[0.325,0.675,0.15,0.85]","","",""
"sailing-trial","203","974502","0.0-11.0-162.0","","","","false","","","","","","","","","","317.79999999981374","","57.39999999944121","","3","1","arrowright","1","arrowright","[0.325,0.675,0.15,0.85]","","",""
"sailing-trial","204","977043","0.0-11.0-163.0","","","","false","","","","","","","","","","null","","918.1000000005588","","3","1","null","null","arrowup","[0.325,0.675,0.15,0.85]","","",""
"sailing-trial","205","980717","0.0-11.0-164.0","","","","false","","","","","","","","","","458.80000000074506","","94.20000000018626","","0","0","arrowleft","0","arrowleft","[0.325,0.675,0.15,0.85]","","",""
"sailing-trial","206","983016","0.0-11.0-165.0","","","","false","","","","","","","","","","null","","993.2000000001863","","0","0","null","null","arrowup","[0.325,0.675,0.15,0.85]","","",""
"sailing-trial","207","986721","0.0-11.0-166.0","","","","false","","","","","","","","","","289.70000000018626","","563.1999999992549","","3","1","arrowright","1","arrowright","[0.325,0.675,0.15,0.85]","","",""
"sailing-trial","208","988842","0.0-11.0-167.0","","","","false","","","","","","","","","","null","","787.2000000001863","","0","0","null","null","arrowup","[0.325,0.675,0.15,0.85]","","",""
"sailing-trial","209","991559","0.0-11.0-168.0","","","","false","","","","","","","","","","19.59999999962747","","123.80000000074506","","3","1","arrowright","1","arrowright","[0.325,0.675,0.15,0.85]","","",""
"sailing-trial","210","993308","0.0-11.0-169.0","","","","false","","","","","","","","","","null","","382.09999999962747","","2","0","null","null","arrowup","[0.325,0.675,0.15,0.85]","","",""
"sailing-trial","211","997059","0.0-11.0-170.0","","","","false","","","","","","","","","","32.299999999813735","","622.6999999992549","","3","1","arrowright","1","arrowright","[0.325,0.675,0.15,0.85]","","",""
"sailing-trial","212","999807","0.0-11.0-171.0","","","","false","","","","","","","","","","null","","895.2999999998137","","0","0","null","null","arrowup","[0.325,0.675,0.15,0.85]","","",""
"sailing-trial","213","1004298","0.0-11.0-172.0","","","","false","","","","","","","","","","663.5","","37","","0","1","arrowleft","0","arrowleft","[0.15,0.85,0.325,0.675]","","",""
"sailing-trial","214","1007310","0.0-11.0-173.0","","","","false","","","","","","","","","","null","","989.2000000001863","","0","1","null","null","arrowup","[0.15,0.85,0.325,0.675]","","",""
"sailing-trial","215","1010991","0.0-11.0-174.0","","","","false","","","","","","","","","","822.3999999994412","","153","","0","0","arrowleft","0","arrowleft","[0.15,0.85,0.325,0.675]","","",""
"sailing-trial","216","1013746","0.0-11.0-175.0","","","","false","","","","","","","","","","null","","1076.8999999994412","","3","1","null","null","arrowup","[0.15,0.85,0.325,0.675]","","",""
"sailing-trial","217","1017799","0.0-11.0-176.0","","","","false","","","","","","","","","","681","","369.30000000074506","","1","1","arrowleft","0","arrowright","[0.15,0.85,0.325,0.675]","","",""
"sailing-trial","218","1021219","0.0-11.0-177.0","","","","false","","","","","","","","","","null","","1189.7000000001863","","1","1","null","null","arrowup","[0.15,0.85,0.325,0.675]","","",""
"sailing-trial","219","1024747","0.0-11.0-178.0","","","","false","","","","","","","","","","415.1000000005588","","163.90000000037253","","1","1","arrowleft","0","arrowright","[0.15,0.85,0.325,0.675]","","",""
"sailing-trial","220","1027314","0.0-11.0-179.0","","","","false","","","","","","","","","","null","","652.7999999998137","","3","1","null","null","arrowup","[0.15,0.85,0.325,0.675]","","",""
"sailing-trial","221","1031374","0.0-11.0-180.0","","","","false","","","","","","","","","","921","","140.80000000074506","","1","1","arrowleft","0","arrowright","[0.15,0.85,0.325,0.675]","","",""
"sailing-trial","222","1033827","0.0-11.0-181.0","","","","false","","","","","","","","","","null","","978.0999999996275","","0","0","null","null","arrowup","[0.15,0.85,0.325,0.675]","","",""
"sailing-trial","223","1037056","0.0-11.0-182.0","","","","false","","","","","","","","","","438.09999999962747","","54.200000000186265","","1","1","arrowleft","0","arrowright","[0.15,0.85,0.325,0.675]","","",""
"sailing-trial","224","1038954","0.0-11.0-183.0","","","","false","","","","","","","","","","null","","762.2000000001863","","0","0","null","null","arrowup","[0.15,0.85,0.325,0.675]","","",""
"sailing-trial","225","1042423","0.0-11.0-184.0","","","","false","","","","","","","","","","461.6000000005588","","253.1000000005588","","1","1","arrowleft","0","arrowright","[0.15,0.85,0.325,0.675]","","",""
"sailing-trial","226","1045880","0.0-11.0-185.0","","","","false","","","","","","","","","","null","","1596.0999999996275","","2","1","null","null","arrowup","[0.15,0.85,0.325,0.675]","","",""
"sailing-trial","227","1049464","0.0-11.0-186.0","","","","false","","","","","","","","","","488.90000000037253","","161.8999999994412","","1","1","arrowleft","0","arrowright","[0.15,0.85,0.325,0.675]","","",""
"sailing-trial","228","1050820","0.0-11.0-187.0","","","","false","","","","","","","","","","null","","48.700000000186265","","0","0","null","null","arrowup","[0.15,0.85,0.325,0.675]","","",""
"sailing-trial","229","1054333","0.0-11.0-188.0","","","","false","","","","","","","","","","344.70000000018626","","314.20000000018626","","2","0","arrowright","1","arrowleft","[0.15,0.85,0.325,0.675]","","",""
"sailing-trial","230","1056620","0.0-11.0-189.0","","","","false","","","","","","","","","","null","","580.5","","0","1","null","null","arrowup","[0.15,0.85,0.325,0.675]","","",""
"sailing-trial","231","1060138","0.0-11.0-190.0","","","","false","","","","","","","","","","65.8999999994412","","652.2999999998137","","0","1","arrowleft","0","arrowleft","[0.85,0.15,0.675,0.325]","","",""
"sailing-trial","232","1063471","0.0-11.0-191.0","","","","false","","","","","","","","","","null","","1550.2000000001863","","3","1","null","null","arrowup","[0.85,0.15,0.675,0.325]","","",""
"sailing-trial","233","1066121","0.0-11.0-192.0","","","","false","","","","","","","","","","138.20000000018626","","338.90000000037253","","0","0","arrowleft","0","arrowleft","[0.85,0.15,0.675,0.325]","","",""
"sailing-trial","234","1069213","0.0-11.0-193.0","","","","false","","","","","","","","","","null","","1220.5999999996275","","2","0","null","null","arrowup","[0.85,0.15,0.675,0.325]","","",""
"sailing-trial","235","1072288","0.0-11.0-194.0","","","","false","","","","","","","","","","609.8000000007451","","306.59999999962747","","1","0","arrowleft","0","arrowright","[0.85,0.15,0.675,0.325]","","",""
"sailing-trial","236","1074359","0.0-11.0-195.0","","","","false","","","","","","","","","","null","","829.9000000003725","","2","0","null","null","arrowup","[0.85,0.15,0.675,0.325]","","",""
"sailing-trial","237","1077078","0.0-11.0-196.0","","","","false","","","","","","","","","","349.20000000018626","","290.5","","3","0","arrowright","1","arrowright","[0.85,0.15,0.675,0.325]","","",""
"sailing-trial","238","1079762","0.0-11.0-197.0","","","","false","","","","","","","","","","null","","892.0999999996275","","2","1","null","null","arrowup","[0.85,0.15,0.675,0.325]","","",""
"sailing-trial","239","1082612","0.0-11.0-198.0","","","","false","","","","","","","","","","180.40000000037253","","46.5","","2","1","arrowright","1","arrowleft","[0.85,0.15,0.675,0.325]","","",""
"sailing-trial","240","1085187","0.0-11.0-199.0","","","","false","","","","","","","","","","null","","498.20000000018626","","2","1","null","null","arrowup","[0.85,0.15,0.675,0.325]","","",""
"sailing-trial","241","1087629","0.0-11.0-200.0","","","","false","","","","","","","","","","304.59999999962747","","47.69999999925494","","2","0","arrowright","1","arrowleft","[0.85,0.15,0.675,0.325]","","",""
"sailing-trial","242","1090311","0.0-11.0-201.0","","","","false","","","","","","","","","","null","","827.5999999996275","","0","0","null","null","arrowup","[0.85,0.15,0.675,0.325]","","",""
"sailing-trial","243","1092894","0.0-11.0-202.0","","","","false","","","","","","","","","","405.40000000037253","","136","","1","0","arrowleft","0","arrowright","[0.85,0.15,0.675,0.325]","","",""
"sailing-trial","244","1099518","0.0-11.0-203.0","","","","false","","","","","","","","","","null","","5190.600000000559","","3","0","null","null","arrowup","[0.85,0.15,0.675,0.325]","","",""
"sailing-trial","245","1104095","0.0-11.0-204.0","","","","false","","","","","","","","","","476","","761.2000000001863","","0","1","arrowleft","0","arrowleft","[0.85,0.15,0.675,0.325]","","",""
"sailing-trial","246","1110612","0.0-11.0-205.0","","","","false","","","","","","","","","","null","","4365","","3","1","null","null","arrowup","[0.85,0.15,0.675,0.325]","","",""
"sailing-trial","247","1113786","0.0-11.0-206.0","","","","false","","","","","","","","","","16.399999999441206","","320.19999999925494","","2","1","arrowright","1","arrowleft","[0.85,0.15,0.675,0.325]","","",""
"sailing-trial","248","1116218","0.0-11.0-207.0","","","","false","","","","","","","","","","null","","571.2999999998137","","2","1","null","null","arrowup","[0.85,0.15,0.675,0.325]","","",""
"sailing-trial","249","1119952","0.0-11.0-208.0","","","","false","","","","","","","","","","940.7000000001863","","67.29999999981374","","2","0","arrowright","1","arrowleft","[0.85,0.15,0.675,0.325]","","",""
"sailing-trial","250","1123336","0.0-11.0-209.0","","","","false","","","","","","","","","","null","","366","","1","0","null","null","arrowup","[0.85,0.15,0.675,0.325]","","",""
"sailing-trial","251","1128350","0.0-11.0-210.0","","","","false","","","","","","","","","","714.2999999998137","","1521.3999999994412","","0","1","arrowleft","0","arrowleft","[0.325,0.675,0.15,0.85]","","",""
"sailing-trial","252","1130894","0.0-11.0-211.0","","","","false","","","","","","","","","","null","","1016.8999999994412","","2","0","null","null","arrowup","[0.325,0.675,0.15,0.85]","","",""
"sailing-trial","253","1134510","0.0-11.0-212.0","","","","false","","","","","","","","","","575.7999999998137","","691.5","","0","0","arrowleft","0","arrowleft","[0.325,0.675,0.15,0.85]","","",""
"sailing-trial","254","1137122","0.0-11.0-213.0","","","","false","","","","","","","","","","null","","817.2000000001863","","0","1","null","null","arrowup","[0.325,0.675,0.15,0.85]","","",""
"sailing-trial","255","1141313","0.0-11.0-214.0","","","","false","","","","","","","","","","938.5999999996275","","352","","1","1","arrowleft","0","arrowright","[0.325,0.675,0.15,0.85]","","",""
"sailing-trial","256","1144379","0.0-11.0-215.0","","","","false","","","","","","","","","","null","","1132.0999999996275","","3","1","null","null","arrowup","[0.325,0.675,0.15,0.85]","","",""
"sailing-trial","257","1147726","0.0-11.0-216.0","","","","false","","","","","","","","","","399","","164.80000000074506","","1","1","arrowleft","0","arrowright","[0.325,0.675,0.15,0.85]","","",""
"sailing-trial","258","1150551","0.0-11.0-217.0","","","","false","","","","","","","","","","null","","803.7000000001863","","3","1","null","null","arrowup","[0.325,0.675,0.15,0.85]","","",""
"sailing-trial","259","1153516","0.0-11.0-218.0","","","","false","","","","","","","","","","30.299999999813735","","111.70000000018626","","1","0","arrowleft","0","arrowright","[0.325,0.675,0.15,0.85]","","",""
"sailing-trial","260","1156010","0.0-11.0-219.0","","","","false","","","","","","","","","","null","","737.3999999994412","","1","1","null","null","arrowup","[0.325,0.675,0.15,0.85]","","",""
"sailing-trial","261","1158753","0.0-11.0-220.0","","","","false","","","","","","","","","","145.5","","151","","1","0","arrowleft","0","arrowright","[0.325,0.675,0.15,0.85]","","",""
"sailing-trial","262","1161787","0.0-11.0-221.0","","","","false","","","","","","","","","","null","","923.5","","0","1","null","null","arrowup","[0.325,0.675,0.15,0.85]","","",""
"sailing-trial","263","1165058","0.0-11.0-222.0","","","","false","","","","","","","","","","190.70000000018626","","163.20000000018626","","3","1","arrowright","1","arrowright","[0.325,0.675,0.15,0.85]","","",""
"sailing-trial","264","1167551","0.0-11.0-223.0","","","","false","","","","","","","","","","null","","1203.699999999255","","1","0","null","null","arrowup","[0.325,0.675,0.15,0.85]","","",""
"sailing-trial","265","1170621","0.0-11.0-224.0","","","","false","","","","","","","","","","314.1000000005588","","47.700000000186265","","3","1","arrowright","1","arrowright","[0.325,0.675,0.15,0.85]","","",""
"sailing-trial","266","1173155","0.0-11.0-225.0","","","","false","","","","","","","","","","null","","1215.300000000745","","2","0","null","null","arrowup","[0.325,0.675,0.15,0.85]","","",""
"sailing-trial","267","1176027","0.0-11.0-226.0","","","","false","","","","","","","","","","148.70000000018626","","1.300000000745058","","3","1","arrowright","1","arrowright","[0.675,0.325,0.85,0.15]","","",""
"sailing-trial","268","1178435","0.0-11.0-227.0","","","","false","","","","","","","","","","null","","90.5","","2","1","null","null","arrowup","[0.675,0.325,0.85,0.15]","","",""
"sailing-trial","269","1180987","0.0-11.0-228.0","","","","false","","","","","","","","","","83.20000000018626","","95","","3","0","arrowright","1","arrowright","[0.675,0.325,0.85,0.15]","","",""
"sailing-trial","270","1183635","0.0-11.0-229.0","","","","false","","","","","","","","","","null","","852.9000000003725","","2","1","null","null","arrowup","[0.675,0.325,0.85,0.15]","","",""
"sailing-trial","271","1186991","0.0-11.0-230.0","","","","false","","","","","","","","","","176.59999999962747","","143.8999999994412","","2","1","arrowright","1","arrowleft","[0.675,0.325,0.85,0.15]","","",""
"sailing-trial","272","1189300","0.0-11.0-231.0","","","","false","","","","","","","","","","null","","1040.7000000001863","","1","0","null","null","arrowup","[0.675,0.325,0.85,0.15]","","",""
"sailing-trial","273","1192959","0.0-11.0-232.0","","","","false","","","","","","","","","","545.3000000007451","","101.20000000018626","","2","1","arrowright","1","arrowleft","[0.675,0.325,0.85,0.15]","","",""
"sailing-trial","274","1196157","0.0-11.0-233.0","","","","false","","","","","","","","","","null","","167.8999999994412","","1","0","null","null","arrowup","[0.675,0.325,0.85,0.15]","","",""
"sailing-trial","275","1200061","0.0-11.0-234.0","","","","false","","","","","","","","","","9.599999999627471","","89.09999999962747","","3","0","arrowright","1","arrowright","[0.675,0.325,0.85,0.15]","","",""
"sailing-trial","276","1202130","0.0-11.0-235.0","","","","false","","","","","","","","","","null","","721.7999999998137","","1","0","null","null","arrowup","[0.675,0.325,0.85,0.15]","","",""
"sailing-trial","277","1205269","0.0-11.0-236.0","","","","false","","","","","","","","","","306.20000000018626","","25.100000000558794","","2","1","arrowright","1","arrowleft","[0.675,0.325,0.85,0.15]","","",""
"sailing-trial","278","1207417","0.0-11.0-237.0","","","","false","","","","","","","","","","null","","164.80000000074506","","2","1","null","null","arrowup","[0.675,0.325,0.85,0.15]","","",""
"sailing-trial","279","1210759","0.0-11.0-238.0","","","","false","","","","","","","","","","582.4000000003725","","9.700000000186265","","2","1","arrowright","1","arrowleft","[0.675,0.325,0.85,0.15]","","",""
"sailing-trial","280","1213377","0.0-11.0-239.0","","","","false","","","","","","","","","","null","","800.0999999996275","","3","1","null","null","arrowup","[0.675,0.325,0.85,0.15]","","",""
"sailing-trial","281","1216347","0.0-11.0-240.0","","","","false","","","","","","","","","","5.2999999998137355","","53.299999999813735","","2","1","arrowright","1","arrowleft","[0.675,0.325,0.85,0.15]","","",""
"sailing-trial","282","1217925","0.0-11.0-241.0","","","","false","","","","","","","","","","null","","424.40000000037253","","2","0","null","null","arrowup","[0.675,0.325,0.85,0.15]","","",""
"sailing-trial","283","1221432","0.0-11.0-242.0","","","","false","","","","","","","","","","301.79999999981374","","144.70000000018626","","2","1","arrowright","1","arrowleft","[0.675,0.325,0.85,0.15]","","",""
"sailing-trial","284","1224716","0.0-11.0-243.0","","","","false","","","","","","","","","","null","","1069.7999999998137","","1","1","null","null","arrowup","[0.675,0.325,0.85,0.15]","","",""
"sailing-trial","285","1227978","0.0-11.0-244.0","","","","false","","","","","","","","","","490.09999999962747","","39.59999999962747","","2","1","arrowright","1","arrowleft","[0.85,0.15,0.675,0.325]","","",""
"sailing-trial","286","1229893","0.0-11.0-245.0","","","","false","","","","","","","","","","null","","298.09999999962747","","3","1","null","null","arrowup","[0.85,0.15,0.675,0.325]","","",""
"sailing-trial","287","1233273","0.0-11.0-246.0","","","","false","","","","","","","","","","478.79999999981374","","92.3999999994412","","2","1","arrowright","1","arrowleft","[0.85,0.15,0.675,0.325]","","",""
"sailing-trial","288","1235198","0.0-11.0-247.0","","","","false","","","","","","","","","","null","","131.5","","1","0","null","null","arrowup","[0.85,0.15,0.675,0.325]","","",""
"sailing-trial","289","1238666","0.0-11.0-248.0","","","","false","","","","","","","","","","331.80000000074506","","282","","2","1","arrowright","1","arrowleft","[0.85,0.15,0.675,0.325]","","",""
"sailing-trial","290","1240458","0.0-11.0-249.0","","","","false","","","","","","","","","","null","","192.19999999925494","","3","0","null","null","arrowup","[0.85,0.15,0.675,0.325]","","",""
"sailing-trial","291","1243249","0.0-11.0-250.0","","","","false","","","","","","","","","","304.8999999994412","","107","","2","0","arrowright","1","arrowleft","[0.85,0.15,0.675,0.325]","","",""
"sailing-trial","292","1245651","0.0-11.0-251.0","","","","false","","","","","","","","","","null","","1026.5999999996275","","2","0","null","null","arrowup","[0.85,0.15,0.675,0.325]","","",""
"sailing-trial","293","1248468","0.0-11.0-252.0","","","","false","","","","","","","","","","578","","15.199999999254942","","3","0","arrowright","1","arrowright","[0.85,0.15,0.675,0.325]","","",""
"sailing-trial","294","1250750","0.0-11.0-253.0","","","","false","","","","","","","","","","null","","1065.1000000005588","","1","0","null","null","arrowup","[0.85,0.15,0.675,0.325]","","",""
"sailing-trial","295","1254115","0.0-11.0-254.0","","","","false","","","","","","","","","","477.59999999962747","","175.29999999981374","","0","1","arrowleft","0","arrowleft","[0.85,0.15,0.675,0.325]","","",""
"sailing-trial","296","1256743","0.0-11.0-255.0","","","","false","","","","","","","","","","null","","798.5","","0","1","null","null","arrowup","[0.85,0.15,0.675,0.325]","","",""
"sailing-trial","297","1260192","0.0-11.0-256.0","","","","false","","","","","","","","","","217.29999999981374","","116.20000000018626","","0","1","arrowleft","0","arrowleft","[0.85,0.15,0.675,0.325]","","",""
"sailing-trial","298","1263408","0.0-11.0-257.0","","","","false","","","","","","","","","","null","","824","","3","0","null","null","arrowup","[0.85,0.15,0.675,0.325]","","",""
"sailing-trial","299","1267797","0.0-11.0-258.0","","","","false","","","","","","","","","","585.7999999998137","","429.59999999962747","","0","1","arrowleft","0","arrowleft","[0.85,0.15,0.675,0.325]","","",""
"sailing-trial","300","1269445","0.0-11.0-259.0","","","","false","","","","","","","","","","null","","210.40000000037253","","3","0","null","null","arrowup","[0.85,0.15,0.675,0.325]","","",""
"sailing-trial","301","1272342","0.0-11.0-260.0","","","","false","","","","","","","","","","506.20000000018626","","170.20000000018626","","3","0","arrowright","1","arrowright","[0.85,0.15,0.675,0.325]","","",""
"sailing-trial","302","1275401","0.0-11.0-261.0","","","","false","","","","","","","","","","null","","819.7999999998137","","0","1","null","null","arrowup","[0.85,0.15,0.675,0.325]","","",""
"sailing-trial","303","1278149","0.0-11.0-262.0","","","","false","","","","","","","","","","133.20000000018626","","354.5","","1","0","arrowleft","0","arrowright","[0.85,0.15,0.675,0.325]","","",""
"sailing-trial","304","1280948","0.0-11.0-263.0","","","","false","","","","","","","","","","null","","1511.5999999996275","","1","0","null","null","arrowup","[0.85,0.15,0.675,0.325]","","",""
"sailing-trial","305","1284066","0.0-11.0-264.0","","","","false","","","","","","","","","","370","","167.29999999981374","","0","1","arrowleft","0","arrowleft","[0.85,0.15,0.675,0.325]","","",""
"sailing-trial","306","1288090","0.0-11.0-265.0","","","","false","","","","","","","","","","null","","1002.3000000007451","","2","0","null","null","arrowup","[0.85,0.15,0.675,0.325]","","",""
"sailing-trial","307","1290508","0.0-11.0-266.0","","","","false","","","","","","","","","","225.3999999994412","","155.3999999994412","","0","0","arrowleft","0","arrowleft","[0.675,0.325,0.85,0.15]","","",""
"sailing-trial","308","1293110","0.0-11.0-267.0","","","","false","","","","","","","","","","null","","759.9000000003725","","1","1","null","null","arrowup","[0.675,0.325,0.85,0.15]","","",""
"sailing-trial","309","1296324","0.0-11.0-268.0","","","","false","","","","","","","","","","647","","18.09999999962747","","2","1","arrowright","1","arrowleft","[0.675,0.325,0.85,0.15]","","",""
"sailing-trial","310","1297948","0.0-11.0-269.0","","","","false","","","","","","","","","","null","","324.1000000005588","","3","0","null","null","arrowup","[0.675,0.325,0.85,0.15]","","",""
"sailing-trial","311","1301055","0.0-11.0-270.0","","","","false","","","","","","","","","","376.19999999925494","","46.5","","2","1","arrowright","1","arrowleft","[0.675,0.325,0.85,0.15]","","",""
"sailing-trial","312","1302991","0.0-11.0-271.0","","","","false","","","","","","","","","","null","","137","","0","1","null","null","arrowup","[0.675,0.325,0.85,0.15]","","",""
"sailing-trial","313","1305728","0.0-11.0-272.0","","","","false","","","","","","","","","","92.29999999981374","","5","","2","1","arrowright","1","arrowleft","[0.675,0.325,0.85,0.15]","","",""
"sailing-trial","314","1307938","0.0-11.0-273.0","","","","false","","","","","","","","","","null","","574.4000000003725","","2","1","null","null","arrowup","[0.675,0.325,0.85,0.15]","","",""
"sailing-trial","315","1312442","0.0-11.0-274.0","","","","false","","","","","","","","","","619.0999999996275","","62.799999999813735","","2","1","arrowright","1","arrowleft","[0.675,0.325,0.85,0.15]","","",""
"sailing-trial","316","1317859","0.0-11.0-275.0","","","","false","","","","","","","","","","null","","3092.800000000745","","1","0","null","null","arrowup","[0.675,0.325,0.85,0.15]","","",""
"sailing-trial","317","1321304","0.0-11.0-276.0","","","","false","","","","","","","","","","772.5","","88.5","","3","0","arrowright","1","arrowright","[0.675,0.325,0.85,0.15]","","",""
"sailing-trial","318","1324019","0.0-11.0-277.0","","","","false","","","","","","","","","","null","","1499.6000000005588","","3","0","null","null","arrowup","[0.675,0.325,0.85,0.15]","","",""
"sailing-trial","319","1327691","0.0-11.0-278.0","","","","false","","","","","","","","","","723.6000000005588","","179.90000000037253","","0","0","arrowleft","0","arrowleft","[0.675,0.325,0.85,0.15]","","",""
"sailing-trial","320","1330475","0.0-11.0-279.0","","","","false","","","","","","","","","","null","","828","","2","1","null","null","arrowup","[0.675,0.325,0.85,0.15]","","",""
"sailing-trial","321","1333894","0.0-11.0-280.0","","","","false","","","","","","","","","","199.5","","113.8999999994412","","2","1","arrowright","1","arrowleft","[0.675,0.325,0.85,0.15]","","",""
"sailing-trial","322","1335217","0.0-11.0-281.0","","","","false","","","","","","","","","","null","","209.29999999981374","","3","0","null","null","arrowup","[0.675,0.325,0.85,0.15]","","",""
"sailing-trial","323","1339020","0.0-11.0-282.0","","","","false","","","","","","","","","","250.29999999981374","","827.7000000001863","","0","1","arrowleft","0","arrowleft","[0.85,0.15,0.675,0.325]","","",""
"sailing-trial","324","1342175","0.0-11.0-283.0","","","","false","","","","","","","","","","null","","1586.9000000003725","","3","1","null","null","arrowup","[0.85,0.15,0.675,0.325]","","",""
"sailing-trial","325","1345286","0.0-11.0-284.0","","","","false","","","","","","","","","","235.29999999981374","","38.700000000186265","","2","0","arrowright","1","arrowleft","[0.85,0.15,0.675,0.325]","","",""
"sailing-trial","326","1347339","0.0-11.0-285.0","","","","false","","","","","","","","","","null","","810","","1","0","null","null","arrowup","[0.85,0.15,0.675,0.325]","","",""
"sailing-trial","327","1350401","0.0-11.0-286.0","","","","false","","","","","","","","","","278.40000000037253","","78.20000000018626","","0","0","arrowleft","0","arrowleft","[0.85,0.15,0.675,0.325]","","",""
"sailing-trial","328","1353101","0.0-11.0-287.0","","","","false","","","","","","","","","","null","","779.2000000001863","","0","1","null","null","arrowup","[0.85,0.15,0.675,0.325]","","",""
"sailing-trial","329","1356134","0.0-11.0-288.0","","","","false","","","","","","","","","","247.90000000037253","","42.799999999813735","","3","0","arrowright","1","arrowright","[0.85,0.15,0.675,0.325]","","",""
"sailing-trial","330","1358550","0.0-11.0-289.0","","","","false","","","","","","","","","","null","","828.9000000003725","","1","1","null","null","arrowup","[0.85,0.15,0.675,0.325]","","",""
"sailing-trial","331","1362284","0.0-11.0-290.0","","","","false","","","","","","","","","","358.29999999981374","","97.5","","0","1","arrowleft","0","arrowleft","[0.85,0.15,0.675,0.325]","","",""
"sailing-trial","332","1364079","0.0-11.0-291.0","","","","false","","","","","","","","","","null","","417.79999999981374","","3","0","null","null","arrowup","[0.85,0.15,0.675,0.325]","","",""
"sailing-trial","333","1368513","0.0-11.0-292.0","","","","false","","","","","","","","","","632.4000000003725","","70","","1","0","arrowleft","0","arrowright","[0.85,0.15,0.675,0.325]","","",""
"sailing-trial","334","1371727","0.0-11.0-293.0","","","","false","","","","","","","","","","null","","1248.5","","0","1","null","null","arrowup","[0.85,0.15,0.675,0.325]","","",""
"sailing-trial","335","1375461","0.0-11.0-294.0","","","","false","","","","","","","","","","134","","129.3999999994412","","2","1","arrowright","1","arrowleft","[0.85,0.15,0.675,0.325]","","",""
"sailing-trial","336","1376813","0.0-11.0-295.0","","","","false","","","","","","","","","","null","","81.20000000018626","","3","0","null","null","arrowup","[0.85,0.15,0.675,0.325]","","",""
"sailing-trial","337","1379880","0.0-11.0-296.0","","","","false","","","","","","","","","","229.29999999981374","","25.700000000186265","","2","1","arrowright","1","arrowleft","[0.85,0.15,0.675,0.325]","","",""
"sailing-trial","338","1381719","0.0-11.0-297.0","","","","false","","","","","","","","","","null","","412.1000000005588","","1","0","null","null","arrowup","[0.85,0.15,0.675,0.325]","","",""
"sailing-trial","339","1384696","0.0-11.0-298.0","","","","false","","","","","","","","","","219.29999999981374","","140.30000000074506","","2","1","arrowright","1","arrowleft","[0.85,0.15,0.675,0.325]","","",""
"sailing-trial","340","1386446","0.0-11.0-299.0","","","","false","","","","","","","","","","null","","92.90000000037253","","0","1","null","null","arrowup","[0.85,0.15,0.675,0.325]","","",""
"sailing-trial","341","1389418","0.0-11.0-300.0","","","","false","","","","","","","","","","96","","178.79999999981374","","0","1","arrowleft","0","arrowleft","[0.675,0.325,0.85,0.15]","","",""
"sailing-trial","342","1391630","0.0-11.0-301.0","","","","false","","","","","","","","","","null","","1149.5","","3","0","null","null","arrowup","[0.675,0.325,0.85,0.15]","","",""
"sailing-trial","343","1394675","0.0-11.0-302.0","","","","false","","","","","","","","","","495.20000000018626","","93","","2","0","arrowright","1","arrowleft","[0.675,0.325,0.85,0.15]","","",""
"sailing-trial","344","1396762","0.0-11.0-303.0","","","","false","","","","","","","","","","null","","887.2999999998137","","0","0","null","null","arrowup","[0.675,0.325,0.85,0.15]","","",""
"sailing-trial","345","1400022","0.0-11.0-304.0","","","","false","","","","","","","","","","26.40000000037253","","188.80000000074506","","0","1","arrowleft","0","arrowleft","[0.675,0.325,0.85,0.15]","","",""
"sailing-trial","346","1404229","0.0-11.0-305.0","","","","false","","","","","","","","","","null","","1191.5999999996275","","2","0","null","null","arrowup","[0.675,0.325,0.85,0.15]","","",""
"sailing-trial","347","1408761","0.0-11.0-306.0","","","","false","","","","","","","","","","576.3000000007451","","133.20000000018626","","1","1","arrowleft","0","arrowright","[0.675,0.325,0.85,0.15]","","",""
"sailing-trial","348","1414969","0.0-11.0-307.0","","","","false","","","","","","","","","","null","","4981.100000000559","","1","0","null","null","arrowup","[0.675,0.325,0.85,0.15]","","",""
"sailing-trial","349","1420496","0.0-11.0-308.0","","","","false","","","","","","","","","","817.7000000001863","","1982.2999999998137","","0","1","arrowleft","0","arrowleft","[0.675,0.325,0.85,0.15]","","",""
"sailing-trial","350","1424010","0.0-11.0-309.0","","","","false","","","","","","","","","","null","","1563.1000000005588","","2","1","null","null","arrowup","[0.675,0.325,0.85,0.15]","","",""
"sailing-trial","351","1427336","0.0-11.0-310.0","","","","false","","","","","","","","","","617.2000000001863","","8.299999999813735","","2","1","arrowright","1","arrowleft","[0.675,0.325,0.85,0.15]","","",""
"sailing-trial","352","1430727","0.0-11.0-311.0","","","","false","","","","","","","","","","null","","1325.300000000745","","3","0","null","null","arrowup","[0.675,0.325,0.85,0.15]","","",""
"sailing-trial","353","1435542","0.0-11.0-312.0","","","","false","","","","","","","","","","696","","103.8999999994412","","3","0","arrowright","1","arrowright","[0.675,0.325,0.85,0.15]","","",""
"sailing-trial","354","1438057","0.0-11.0-313.0","","","","false","","","","","","","","","","null","","1280","","1","0","null","null","arrowup","[0.675,0.325,0.85,0.15]","","",""
"sailing-trial","355","1441050","0.0-11.0-314.0","","","","false","","","","","","","","","","488.8999999994412","","48.5","","0","0","arrowleft","0","arrowleft","[0.675,0.325,0.85,0.15]","","",""
"sailing-trial","356","1443727","0.0-11.0-315.0","","","","false","","","","","","","","","","null","","541.9000000003725","","3","0","null","null","arrowup","[0.675,0.325,0.85,0.15]","","",""
"sailing-trial","357","1447794","0.0-11.0-316.0","","","","false","","","","","","","","","","555.7999999998137","","334.20000000018626","","3","0","arrowright","1","arrowright","[0.675,0.325,0.85,0.15]","","",""
"sailing-trial","358","1451409","0.0-11.0-317.0","","","","false","","","","","","","","","","null","","1742.800000000745","","2","1","null","null","arrowup","[0.675,0.325,0.85,0.15]","","",""
"sailing-trial","359","1454430","0.0-11.0-318.0","","","","false","","","","","","","","","","368.6000000005588","","252.90000000037253","","0","0","arrowleft","0","arrowleft","[0.675,0.325,0.85,0.15]","","",""
"sailing-trial","360","1457760","0.0-11.0-319.0","","","","false","","","","","","","","","","null","","1131","","0","1","null","null","arrowup","[0.675,0.325,0.85,0.15]","","",""
"sailing-trial","361","1461701","0.0-11.0-320.0","","","","false","","","","","","","","","","1028.6000000005588","","252.5","","2","1","arrowright","1","arrowleft","[0.675,0.325,0.85,0.15]","","",""
"sailing-trial","362","1464109","0.0-11.0-321.0","","","","false","","","","","","","","","","null","","633.7999999998137","","0","1","null","null","arrowup","[0.675,0.325,0.85,0.15]","","",""
"sailing-trial","363","1467801","0.0-11.0-322.0","","","","false","","","","","","","","","","178.70000000018626","","799.3999999994412","","0","1","arrowleft","0","arrowleft","[0.675,0.325,0.85,0.15]","","",""
"sailing-trial","364","1469701","0.0-11.0-323.0","","","","false","","","","","","","","","","null","","293.5","","3","0","null","null","arrowup","[0.675,0.325,0.85,0.15]","","",""
"sailing-trial","365","1472935","0.0-11.0-324.0","","","","false","","","","","","","","","","781.5","","11","","0","0","arrowleft","0","arrowleft","[0.15,0.85,0.325,0.675]","","",""
"sailing-trial","366","1475509","0.0-11.0-325.0","","","","false","","","","","","","","","","null","","842","","3","1","null","null","arrowup","[0.15,0.85,0.325,0.675]","","",""
"sailing-trial","367","1478518","0.0-11.0-326.0","","","","false","","","","","","","","","","2.099999999627471","","82.5","","3","1","arrowright","1","arrowright","[0.15,0.85,0.325,0.675]","","",""
"sailing-trial","368","1482267","0.0-11.0-327.0","","","","false","","","","","","","","","","null","","1391.7999999998137","","3","1","null","null","arrowup","[0.15,0.85,0.325,0.675]","","",""
"sailing-trial","369","1490628","0.0-11.0-328.0","","","","false","","","","","","","","","","5376.200000000186","","291.09999999962747","","3","0","arrowright","1","arrowright","[0.15,0.85,0.325,0.675]","","",""
"sailing-trial","370","1492893","0.0-11.0-329.0","","","","false","","","","","","","","","","null","","612.7999999998137","","3","1","null","null","arrowup","[0.15,0.85,0.325,0.675]","","",""
"sailing-trial","371","1496335","0.0-11.0-330.0","","","","false","","","","","","","","","","187.09999999962747","","103.29999999981374","","2","0","arrowright","1","arrowleft","[0.15,0.85,0.325,0.675]","","",""
"sailing-trial","372","1499869","0.0-11.0-331.0","","","","false","","","","","","","","","","null","","892.3000000007451","","2","1","null","null","arrowup","[0.15,0.85,0.325,0.675]","","",""
"sailing-trial","373","1502799","0.0-11.0-332.0","","","","false","","","","","","","","","","3.2000000001862645","","143.20000000018626","","0","0","arrowleft","0","arrowleft","[0.15,0.85,0.325,0.675]","","",""
"sailing-trial","374","1506676","0.0-11.0-333.0","","","","false","","","","","","","","","","null","","854.8000000007451","","0","0","null","null","arrowup","[0.15,0.85,0.325,0.675]","","",""
"sailing-trial","375","1510375","0.0-11.0-334.0","","","","false","","","","","","","","","","189.09999999962747","","151.8999999994412","","1","1","arrowleft","0","arrowright","[0.15,0.85,0.325,0.675]","","",""
"sailing-trial","376","1512497","0.0-11.0-335.0","","","","false","","","","","","","","","","null","","473.30000000074506","","1","1","null","null","arrowup","[0.15,0.85,0.325,0.675]","","",""
"sailing-trial","377","1516144","0.0-11.0-336.0","","","","false","","","","","","","","","","61.40000000037253","","193","","1","1","arrowleft","0","arrowright","[0.15,0.85,0.325,0.675]","","",""
"sailing-trial","378","1518193","0.0-11.0-337.0","","","","false","","","","","","","","","","null","","114.1000000005588","","1","1","null","null","arrowup","[0.15,0.85,0.325,0.675]","","",""
"sailing-trial","379","1523268","0.0-11.0-338.0","","","","false","","","","","","","","","","871.5","","873.5","","1","1","arrowleft","0","arrowright","[0.15,0.85,0.325,0.675]","","",""
"sailing-trial","380","1525468","0.0-11.0-339.0","","","","false","","","","","","","","","","null","","35.799999999813735","","3","1","null","null","arrowup","[0.15,0.85,0.325,0.675]","","",""
"sailing-trial","381","1528749","0.0-11.0-340.0","","","","false","","","","","","","","","","471.09999999962747","","87.09999999962747","","1","1","arrowleft","0","arrowright","[0.15,0.85,0.325,0.675]","","",""
"sailing-trial","382","1531090","0.0-11.0-341.0","","","","false","","","","","","","","","","null","","119.79999999981374","","1","1","null","null","arrowup","[0.15,0.85,0.325,0.675]","","",""
"sailing-trial","383","1534384","0.0-11.0-342.0","","","","false","","","","","","","","","","595","","143.59999999962747","","1","1","arrowleft","0","arrowright","[0.325,0.675,0.15,0.85]","","",""
"sailing-trial","384","1537823","0.0-11.0-343.0","","","","false","","","","","","","","","","null","","1601.5999999996275","","0","0","null","null","arrowup","[0.325,0.675,0.15,0.85]","","",""
"sailing-trial","385","1541626","0.0-11.0-344.0","","","","false","","","","","","","","","","503.59999999962747","","438.29999999981374","","1","1","arrowleft","0","arrowright","[0.325,0.675,0.15,0.85]","","",""
"sailing-trial","386","1544306","0.0-11.0-345.0","","","","false","","","","","","","","","","null","","613.2999999998137","","1","1","null","null","arrowup","[0.325,0.675,0.15,0.85]","","",""
"sailing-trial","387","1549311","0.0-11.0-346.0","","","","false","","","","","","","","","","516.5","","1617.800000000745","","1","1","arrowleft","0","arrowright","[0.325,0.675,0.15,0.85]","","",""
"sailing-trial","388","1552119","0.0-11.0-347.0","","","","false","","","","","","","","","","null","","154.09999999962747","","0","1","null","null","arrowup","[0.325,0.675,0.15,0.85]","","",""
"sailing-trial","389","1554846","0.0-11.0-348.0","","","","false","","","","","","","","","","356","","81.09999999962747","","1","0","arrowleft","0","arrowright","[0.325,0.675,0.15,0.85]","","",""
"sailing-trial","390","1558253","0.0-11.0-349.0","","","","false","","","","","","","","","","null","","1459.0999999996275","","3","1","null","null","arrowup","[0.325,0.675,0.15,0.85]","","",""
"sailing-trial","391","1560743","0.0-11.0-350.0","","","","false","","","","","","","","","","130.6000000005588","","36.39999999944121","","2","0","arrowright","1","arrowleft","[0.325,0.675,0.15,0.85]","","",""
"sailing-trial","392","1562935","0.0-11.0-351.0","","","","false","","","","","","","","","","null","","1063.2000000001863","","3","0","null","null","arrowup","[0.325,0.675,0.15,0.85]","","",""
"sailing-trial","393","1566371","0.0-11.0-352.0","","","","false","","","","","","","","","","794.2000000001863","","42","","3","1","arrowright","1","arrowright","[0.325,0.675,0.15,0.85]","","",""
"sailing-trial","394","1568629","0.0-11.0-353.0","","","","false","","","","","","","","","","null","","318.29999999981374","","0","0","null","null","arrowup","[0.325,0.675,0.15,0.85]","","",""
"sailing-trial","395","1571438","0.0-11.0-354.0","","","","false","","","","","","","","","","419.5","","297.09999999962747","","0","0","arrowleft","0","arrowleft","[0.325,0.675,0.15,0.85]","","",""
"sailing-trial","396","1573476","0.0-11.0-355.0","","","","false","","","","","","","","","","null","","491.30000000074506","","2","1","null","null","arrowup","[0.325,0.675,0.15,0.85]","","",""
"sailing-trial","397","1576627","0.0-11.0-356.0","","","","false","","","","","","","","","","503.20000000018626","","194.1000000005588","","1","0","arrowleft","0","arrowright","[0.325,0.675,0.15,0.85]","","",""
"sailing-trial","398","1579142","0.0-11.0-357.0","","","","false","","","","","","","","","","null","","1189","","0","0","null","null","arrowup","[0.325,0.675,0.15,0.85]","","",""
"sailing-trial","399","1582263","0.0-11.0-358.0","","","","false","","","","","","","","","","485.70000000018626","","24.399999999441206","","2","1","arrowright","1","arrowleft","[0.675,0.325,0.85,0.15]","","",""
"sailing-trial","400","1589254","0.0-11.0-359.0","","","","false","","","","","","","","","","null","","5643.799999999814","","1","0","null","null","arrowup","[0.675,0.325,0.85,0.15]","","",""
"sailing-trial","401","1592603","0.0-11.0-360.0","","","","false","","","","","","","","","","548.5999999996275","","19.600000000558794","","2","1","arrowright","1","arrowleft","[0.675,0.325,0.85,0.15]","","",""
"sailing-trial","402","1595511","0.0-11.0-361.0","","","","false","","","","","","","","","","null","","1320.0999999996275","","3","0","null","null","arrowup","[0.675,0.325,0.85,0.15]","","",""
"sailing-trial","403","1598945","0.0-11.0-362.0","","","","false","","","","","","","","","","544.7000000001863","","14.200000000186265","","3","1","arrowright","1","arrowright","[0.675,0.325,0.85,0.15]","","",""
"sailing-trial","404","1602146","0.0-11.0-363.0","","","","false","","","","","","","","","","null","","1532.9000000003725","","0","1","null","null","arrowup","[0.675,0.325,0.85,0.15]","","",""
"sailing-trial","405","1606111","0.0-11.0-364.0","","","","false","","","","","","","","","","641","","383.8999999994412","","0","1","arrowleft","0","arrowleft","[0.675,0.325,0.85,0.15]","","",""
"sailing-trial","406","1607593","0.0-11.0-365.0","","","","false","","","","","","","","","","null","","183.79999999981374","","3","0","null","null","arrowup","[0.675,0.325,0.85,0.15]","","",""
"sailing-trial","407","1611777","0.0-11.0-366.0","","","","false","","","","","","","","","","477.5","","136.20000000018626","","0","1","arrowleft","0","arrowleft","[0.675,0.325,0.85,0.15]","","",""
"sailing-trial","408","1614652","0.0-11.0-367.0","","","","false","","","","","","","","","","null","","1127.2999999998137","","0","1","null","null","arrowup","[0.675,0.325,0.85,0.15]","","",""
"sailing-trial","409","1617811","0.0-11.0-368.0","","","","false","","","","","","","","","","604.9000000003725","","130.40000000037253","","0","0","arrowleft","0","arrowleft","[0.675,0.325,0.85,0.15]","","",""
"sailing-trial","410","1619577","0.0-11.0-369.0","","","","false","","","","","","","","","","null","","422.69999999925494","","2","0","null","null","arrowup","[0.675,0.325,0.85,0.15]","","",""
"sailing-trial","411","1622825","0.0-11.0-370.0","","","","false","","","","","","","","","","368.8999999994412","","46.299999999813735","","1","1","arrowleft","0","arrowright","[0.675,0.325,0.85,0.15]","","",""
"sailing-trial","412","1624533","0.0-11.0-371.0","","","","false","","","","","","","","","","null","","562.5999999996275","","3","0","null","null","arrowup","[0.675,0.325,0.85,0.15]","","",""
"sailing-trial","413","1628326","0.0-11.0-372.0","","","","false","","","","","","","","","","860.5999999996275","","115","","2","1","arrowright","1","arrowleft","[0.675,0.325,0.85,0.15]","","",""
"sailing-trial","414","1629943","0.0-11.0-373.0","","","","false","","","","","","","","","","null","","201.70000000018626","","0","0","null","null","arrowup","[0.675,0.325,0.85,0.15]","","",""
"sailing-trial","415","1632453","0.0-11.0-374.0","","","","false","","","","","","","","","","300.19999999925494","","137.69999999925494","","1","0","arrowleft","0","arrowright","[0.675,0.325,0.85,0.15]","","",""
"sailing-trial","416","1635343","0.0-11.0-375.0","","","","false","","","","","","","","","","null","","1100.4000000003725","","2","1","null","null","arrowup","[0.675,0.325,0.85,0.15]","","",""
"sailing-trial","417","1638082","0.0-11.0-376.0","","","","false","","","","","","","","","","384","","63.59999999962747","","2","0","arrowright","1","arrowleft","[0.675,0.325,0.85,0.15]","","",""
"sailing-trial","418","1640543","0.0-11.0-377.0","","","","false","","","","","","","","","","null","","694.0999999996275","","2","1","null","null","arrowup","[0.675,0.325,0.85,0.15]","","",""
"sailing-trial","419","1644943","0.0-11.0-378.0","","","","false","","","","","","","","","","93.09999999962747","","1090.4000000003725","","0","1","arrowleft","0","arrowleft","[0.675,0.325,0.85,0.15]","","",""
"sailing-trial","420","1649809","0.0-11.0-379.0","","","","false","","","","","","","","","","null","","2158.5","","0","1","null","null","arrowup","[0.675,0.325,0.85,0.15]","","",""
"sailing-trial","421","1654004","0.0-11.0-380.0","","","","false","","","","","","","","","","1052.4000000003725","","288.20000000018626","","0","1","arrowleft","0","arrowleft","[0.85,0.15,0.675,0.325]","","",""
"sailing-trial","422","1656839","0.0-11.0-381.0","","","","false","","","","","","","","","","null","","1199.2000000001863","","0","1","null","null","arrowup","[0.85,0.15,0.675,0.325]","","",""
"sailing-trial","423","1659651","0.0-11.0-382.0","","","","false","","","","","","","","","","143.3999999994412","","90.5","","0","1","arrowleft","0","arrowleft","[0.85,0.15,0.675,0.325]","","",""
"sailing-trial","424","1661349","0.0-11.0-383.0","","","","false","","","","","","","","","","null","","163.29999999981374","","1","0","null","null","arrowup","[0.85,0.15,0.675,0.325]","","",""
"sailing-trial","425","1664476","0.0-11.0-384.0","","","","false","","","","","","","","","","312.30000000074506","","154.8999999994412","","0","1","arrowleft","0","arrowleft","[0.85,0.15,0.675,0.325]","","",""
"sailing-trial","426","1666768","0.0-11.0-385.0","","","","false","","","","","","","","","","null","","196.69999999925494","","0","1","null","null","arrowup","[0.85,0.15,0.675,0.325]","","",""
"sailing-trial","427","1670330","0.0-11.0-386.0","","","","false","","","","","","","","","","644.4000000003725","","356.59999999962747","","0","1","arrowleft","0","arrowleft","[0.85,0.15,0.675,0.325]","","",""
"sailing-trial","428","1671938","0.0-11.0-387.0","","","","false","","","","","","","","","","null","","179.5","","1","0","null","null","arrowup","[0.85,0.15,0.675,0.325]","","",""
"sailing-trial","429","1675780","0.0-11.0-388.0","","","","false","","","","","","","","","","324.40000000037253","","886.0999999996275","","0","1","arrowleft","0","arrowleft","[0.85,0.15,0.675,0.325]","","",""
"sailing-trial","430","1677228","0.0-11.0-389.0","","","","false","","","","","","","","","","null","","94.40000000037253","","2","0","null","null","arrowup","[0.85,0.15,0.675,0.325]","","",""
"sailing-trial","431","1682579","0.0-11.0-390.0","","","","false","","","","","","","","","","735.2000000001863","","587.5","","0","0","arrowleft","0","arrowleft","[0.85,0.15,0.675,0.325]","","",""
"sailing-trial","432","1686332","0.0-11.0-391.0","","","","false","","","","","","","","","","null","","2309.7000000001863","","0","0","null","null","arrowup","[0.85,0.15,0.675,0.325]","","",""
"sailing-trial","433","1689826","0.0-11.0-392.0","","","","false","","","","","","","","","","779.7999999998137","","81.79999999981374","","1","0","arrowleft","0","arrowright","[0.85,0.15,0.675,0.325]","","",""
"sailing-trial","434","1694745","0.0-11.0-393.0","","","","false","","","","","","","","","","null","","3221.9000000003725","","2","1","null","null","arrowup","[0.85,0.15,0.675,0.325]","","",""
"sailing-trial","435","1698114","0.0-11.0-394.0","","","","false","","","","","","","","","","542.2999999998137","","87.29999999981374","","0","1","arrowleft","0","arrowleft","[0.85,0.15,0.675,0.325]","","",""
"sailing-trial","436","1699728","0.0-11.0-395.0","","","","false","","","","","","","","","","null","","496.5","","3","0","null","null","arrowup","[0.85,0.15,0.675,0.325]","","",""
"sailing-trial","437","1703153","0.0-11.0-396.0","","","","false","","","","","","","","","","369.09999999962747","","433.80000000074506","","0","1","arrowleft","0","arrowleft","[0.85,0.15,0.675,0.325]","","",""
"sailing-trial","438","1704910","0.0-11.0-397.0","","","","false","","","","","","","","","","null","","737.5999999996275","","0","0","null","null","arrowup","[0.85,0.15,0.675,0.325]","","",""
"sailing-trial","439","1707729","0.0-11.0-398.0","","","","false","","","","","","","","","","509","","249.5","","0","0","arrowleft","0","arrowleft","[0.85,0.15,0.675,0.325]","","",""
"sailing-trial","440","1713320","0.0-11.0-399.0","","","","false","","","","","","","","","","null","","3845.7000000001863","","3","1","null","null","arrowup","[0.85,0.15,0.675,0.325]","","",""
"instructions","441","1769912","0.0-12.0","","","","","","","","","","56591.799999999814","","","","","","","","","","","","","","","","[{""page_index"":0,""viewing_time"":56590.299999999814}]"
"survey-debrief","442","1818236","0.0-13.0","","","","","","","","","","48321.09999999963","","","","","","","","","","","","","","{""difficulty"":""4"",""fun"":""3"",""clarity"":""5"",""strategy"":""Guessed based on foggy store"",""feedback"":""""}","",""
